time_index,position_y,attitude_yaw,attitude_pitch,wind_x,velocity_z,time_actual,attitude_roll,velocity_y,velocity_x,position_x,position_z,time_flight,wind_y,altitude_baro,current_1,rpm_1,quaternion_3,magnetometer_0,global_position_latitude,mode_2,servos_3,servos_2,magnetometer_2,magnetometer_1,tx_controls_1,tx_controls_7,battery_0,servos_6,tx_controls_3,tx_controls_5,axis_rate_roll,airspeed_0,quaternion_1,tx_controls_0,axis_rate_pitch,mode_1,acceleration_y,current_3,acceleration_z,global_position_longitude,current_0,rpm_0,current_2,tx_controls_4,battery_1,servos_0,altitude_gps,axis_rate_yaw,tx_controls_2,servos_5,quaternion_2,quaternion_0,airspeed_1,servos_4,acceleration_x,tx_controls_6,servos_7,servos_1,gps_sat_count_0,mode_0
0.0,50.51300811767578,0.8655087760639881,0.29670597283903605,0.0,-7.105844020843506,62.082834999999996,-0.054279739737023644,16.420827865600586,15.491189956665039,44.04511642456055,-10.208976745605469,62.082834999999996,0.0,,,,,,51.64113463369196,,,,,,,,,,,,,,,,,,,,,-2.5254820048860975,,,,,,,,,,,,,,,,,,,,
0.03907699999999892,51.16403579711914,0.8655087760639881,0.29496064358704166,0.0,-7.016115665435791,62.121911999999995,-0.045553093477052,16.514022827148438,15.506486892700195,44.657814025878906,-10.494738578796387,62.121911999999995,0.0,,,,,,51.641129129703835,,,,,,,,,,,,,,,,,,,,,-2.5254725811013135,,,,,,,,,,,,,,,,,,,,
0.07934999999999803,51.814064025878906,0.8660323748395863,0.29338984726024675,0.0,-6.904140472412109,62.162184999999994,-0.03804817769347639,16.557828903198242,15.58178424835205,45.269737243652344,-10.775453567504883,62.162184999999994,0.0,,,,,,51.641123632672155,,,,,,,,,,,,,,,,,,,,,-2.5254631717861296,,,,,,,,,,,,,,,,,,,,
0.11963700000000443,52.467891693115234,0.8653342431387886,0.2909463863074548,0.0,-6.722809791564941,62.202472,-0.041887902047863905,16.63796615600586,15.65129566192627,45.885250091552734,-11.050415992736816,62.202472,0.0,,,,,,51.64111810339409,,,,,,,,,,,,,,,,,,,,,-2.525453707475462,,,,,,,,,,,,,,,,,,,,
0.15926900000000188,53.12568664550781,0.8642870455875921,0.28989918875625814,0.0,-6.609917163848877,62.242104,-0.04153883619746504,16.69534683227539,15.705678939819336,46.50396728515625,-11.319414138793945,62.242104,0.0,,,,,,51.641112545330735,,,,,,,,,,,,,,,,,,,,,-2.525444185739648,,,,,,,,,,,,,,,,,,,,
0.19986899999999963,53.78659439086914,0.8635889138867942,0.2893755899806598,0.0,-6.595251560211182,62.282703999999995,-0.039968039870670144,16.738784790039062,15.74775218963623,47.12545394897461,-11.5850191116333,62.282703999999995,0.0,,,,,,51.641106962388655,,,,,,,,,,,,,,,,,,,,,-2.525434618947754,,,,,,,,,,,,,,,,,,,,
0.2392590000000041,54.46678924560547,0.8628907821859965,0.28955012290585924,0.0,-6.534748554229736,62.322094,-0.03298672286269283,16.792997360229492,15.782930374145508,47.765296936035156,-11.855340957641602,62.322094,0.0,,,,,,51.641101214547966,,,,,,,,,,,,,,,,,,,,,-2.5254247729730026,,,,,,,,,,,,,,,,,,,,
0.27949600000000174,55.12971115112305,0.8635889138867942,0.290248254606657,0.0,-6.466092109680176,62.362331,-0.02111848394913139,16.816791534423828,15.851419448852539,48.3874397277832,-12.113049507141113,62.362331,0.0,,,,,,51.641095625711756,,,,,,,,,,,,,,,,,,,,,-2.5254151770302795,,,,,,,,,,,,,,,,,,,,
0.3196489999999983,55.795501708984375,0.8644615785127915,0.291469985083053,0.0,-6.478675842285156,62.402483999999994,-0.010297442586766544,16.887571334838867,15.847183227539062,49.0118408203125,-12.36965274810791,62.402483999999994,0.0,,,,,,51.64109001658877,,,,,,,,,,,,,,,,,,,,,-2.5254055395654844,,,,,,,,,,,,,,,,,,,,
0.35916800000000393,56.4649772644043,0.8663814406899852,0.2930407814098479,0.0,-6.5409345626831055,62.442003,0.00471238898038469,16.947952270507812,15.862381935119629,49.637672424316406,-12.627126693725586,62.442003,0.0,,,,,,51.641084394615206,,,,,,,,,,,,,,,,,,,,,-2.525395848761615,,,,,,,,,,,,,,,,,,,,
0.3994509999999991,57.13846969604492,0.8677777040915806,0.29269171555944906,0.0,-6.571101665496826,62.482285999999995,0.01658062789394613,17.024921417236328,15.89623737335205,50.26483917236328,-12.887336730957031,62.482285999999995,0.0,,,,,,51.641078760647765,,,,,,,,,,,,,,,,,,,,,-2.525386099814619,,,,,,,,,,,,,,,,,,,,
0.4391220000000047,57.81549072265625,0.8669050394655835,0.29216811678385074,0.0,-6.702244281768799,62.521957,0.015184364492350668,17.105281829833984,15.91694164276123,50.894187927246094,-13.15087890625,62.521957,0.0,,,,,,51.64107310707892,,,,,,,,,,,,,,,,,,,,,-2.5253762997927143,,,,,,,,,,,,,,,,,,,,
0.48005799999999965,58.493247985839844,0.8649851772883898,0.2892010570554604,0.0,-6.752458095550537,62.562892999999995,0.012042771838760872,17.179611206054688,15.93421459197998,51.52033996582031,-13.414460182189941,62.562892999999995,0.0,,,,,,51.641067482226816,,,,,,,,,,,,,,,,,,,,,-2.5253664891154273,,,,,,,,,,,,,,,,,,,,
0.5200409999999991,59.17524719238281,0.862716249260797,0.289026524130261,0.0,-6.835937023162842,62.602875999999995,0.017453292519943295,17.26358985900879,15.963640213012695,52.14842224121094,-13.681975364685059,62.602875999999995,0.0,,,,,,51.641061840035015,,,,,,,,,,,,,,,,,,,,,-2.525356617037248,,,,,,,,,,,,,,,,,,,,
0.5598780000000048,59.86022186279297,0.8599237224576062,0.2853613327010729,0.0,-6.8722686767578125,62.642713,0.020943951023931952,17.289793014526367,16.030197143554688,52.77927780151367,-13.951574325561523,62.642713,0.0,,,,,,51.64105617293022,,,,,,,,,,,,,,,,,,,,,-2.525346701891098,,,,,,,,,,,,,,,,,,,,
0.5996980000000036,60.54726791381836,0.8566075968788169,0.28483773392547457,0.0,-6.909597396850586,62.682533,0.019547687622336492,17.320032119750977,16.1134033203125,53.41412353515625,-14.223956108093262,62.682533,0.0,,,,,,51.641050469980875,,,,,,,,,,,,,,,,,,,,,-2.525336756764148,,,,,,,,,,,,,,,,,,,,
0.6393040000000028,61.23604965209961,0.8546877347016232,0.2816961412718848,0.0,-6.926751613616943,62.722139,0.014835298641951801,17.346174240112305,16.175344467163086,54.052371978759766,-14.496646881103516,62.722139,0.0,,,,,,51.6410447364643,,,,,,,,,,,,,,,,,,,,,-2.5253267865156097,,,,,,,,,,,,,,,,,,,,
0.6794450000000012,61.92367935180664,0.8532914713000277,0.2811725424962865,0.0,-6.989285469055176,62.76228,0.0041887902047863905,17.377599716186523,16.208715438842773,54.68925476074219,-14.770368576049805,62.76228,0.0,,,,,,51.64103901521574,,,,,,,,,,,,,,,,,,,,,-2.5253168329455145,,,,,,,,,,,,,,,,,,,,
0.7196890000000025,62.6135139465332,0.8531169383748284,0.2794272132442922,0.0,-7.0909271240234375,62.802524,-0.007330382858376184,17.40772247314453,16.24216651916504,55.32797622680664,-15.047266006469727,62.802524,0.0,,,,,,51.6410332774499,,,,,,,,,,,,,,,,,,,,,-2.5253068474616334,,,,,,,,,,,,,,,,,,,,
0.7592580000000027,63.305171966552734,0.8503244115716373,0.27977627909469105,0.0,-7.216683387756348,62.842093,-0.018675022996339326,17.42732048034668,16.263423919677734,55.969139099121094,-15.330069541931152,62.842093,0.0,,,,,,51.641027517752406,,,,,,,,,,,,,,,,,,,,,-2.525296835586006,,,,,,,,,,,,,,,,,,,,
0.7993179999999995,63.998355865478516,0.848579082319643,0.27977627909469105,0.0,-7.327352523803711,62.882152999999995,-0.017453292519943295,17.449705123901367,16.304292678833008,56.612117767333984,-15.617101669311523,62.882152999999995,0.0,,,,,,51.64102174174325,,,,,,,,,,,,,,,,,,,,,-2.5252868016256302,,,,,,,,,,,,,,,,,,,,
0.8391009999999994,64.69306182861328,0.8473573518432469,0.2792526803190927,0.0,-7.344233989715576,62.921935999999995,-0.012740903539558606,17.463224411010742,16.348251342773438,57.25770950317383,-15.907774925231934,62.921935999999995,0.0,,,,,,51.641015942260374,,,,,,,,,,,,,,,,,,,,,-2.5252767456358907,,,,,,,,,,,,,,,,,,,,
0.879331999999998,65.38481140136719,0.8463101542920505,0.2789036144686939,0.0,-7.373168468475342,62.962166999999994,-0.013788101090755204,17.48491668701172,16.423412322998047,57.9028205871582,-16.196882247924805,62.962166999999994,0.0,,,,,,51.64101014709529,,,,,,,,,,,,,,,,,,,,,-2.5252667324433977,,,,,,,,,,,,,,,,,,,,
0.9196460000000002,66.07874298095703,0.8454374896660531,0.27785641691749724,0.0,-7.311863422393799,63.002480999999996,-0.016755160819145562,17.515165328979492,16.459491729736328,58.551353454589844,-16.486602783203125,63.002480999999996,0.0,,,,,,51.64100432119162,,,,,,,,,,,,,,,,,,,,,-2.52525668766882,,,,,,,,,,,,,,,,,,,,
0.9596549999999979,66.77499389648438,0.8456120225912527,0.27820548276789614,0.0,-7.306498050689697,63.042489999999994,-0.014486232791552934,17.563852310180664,16.514997482299805,59.20259094238281,-16.77467155456543,63.042489999999994,0.0,,,,,,51.640998470991796,,,,,,,,,,,,,,,,,,,,,-2.5252466093241663,,,,,,,,,,,,,,,,,,,,
0.9999820000000028,67.47419738769531,0.8471828189180476,0.2769837522915001,0.0,-7.256608963012695,63.082817,-0.013613568165555772,17.618545532226562,16.49555015563965,59.85540771484375,-17.062467575073242,63.082817,0.0,,,,,,51.64099260660493,,,,,,,,,,,,,,,,,,,,,-2.5252364882428906,,,,,,,,,,,,,,,,,,,,
1.0392530000000022,68.17681884765625,0.8484045493944435,0.278554548618295,0.0,-7.279933452606201,63.122088,-0.006981317007977318,17.706661224365234,16.484603881835938,60.50834655761719,-17.349565505981445,63.122088,0.0,,,,,,51.64098674112148,,,,,,,,,,,,,,,,,,,,,-2.525226317688013,,,,,,,,,,,,,,,,,,,,
1.0794899999999998,68.87944793701172,0.8491026810952413,0.2775073510670984,0.0,-7.259442329406738,63.162324999999996,-0.00034906585039886593,17.74787712097168,16.468862533569336,61.15842056274414,-17.637136459350586,63.162324999999996,0.0,,,,,,51.64098090137346,,,,,,,,,,,,,,,,,,,,,-2.525216147024763,,,,,,,,,,,,,,,,,,,,
1.119610999999999,69.58499145507812,0.8491026810952413,0.2790781473938933,0.0,-7.314470291137695,63.202445999999995,0.0054105206811824215,17.809022903442383,16.484310150146484,61.809383392333984,-17.925338745117188,63.202445999999995,0.0,,,,,,51.64097505364094,,,,,,,,,,,,,,,,,,,,,-2.5252059341769875,,,,,,,,,,,,,,,,,,,,
1.159162000000002,70.29344940185547,0.848579082319643,0.2776818839922978,0.0,-7.262508392333984,63.241997,0.012740903539558606,17.85738754272461,16.4754638671875,62.46128845214844,-18.214494705200195,63.241997,0.0,,,,,,51.640969197444186,,,,,,,,,,,,,,,,,,,,,-2.5251956791447197,,,,,,,,,,,,,,,,,,,,
1.199741000000003,71.0051498413086,0.8480554835440448,0.2789036144686939,0.0,-7.206486701965332,63.282576,0.02600540585471551,17.940935134887695,16.516908645629883,63.11479949951172,-18.501590728759766,63.282576,0.0,,,,,,51.640963326820504,,,,,,,,,,,,,,,,,,,,,-2.5251853771792834,,,,,,,,,,,,,,,,,,,,
1.2392210000000006,71.72020721435547,0.848579082319643,0.2764601535159018,0.0,-7.008895397186279,63.322055999999996,0.03804817769347639,18.00091552734375,16.572120666503906,63.77101516723633,-18.78370475769043,63.322055999999996,0.0,,,,,,51.64095743190067,,,,,,,,,,,,,,,,,,,,,-2.5251750266243627,,,,,,,,,,,,,,,,,,,,
1.2794269999999983,72.43757629394531,0.8492772140204407,0.2775073510670984,0.0,-6.878354072570801,63.362261999999994,0.04223696789826278,18.090456008911133,16.630245208740234,64.4256362915039,-19.057262420654297,63.362261999999994,0.0,,,,,,51.640951551304944,,,,,,,,,,,,,,,,,,,,,-2.525164642609101,,,,,,,,,,,,,,,,,,,,
1.3195219999999992,73.15855407714844,0.8492772140204407,0.2750638901143063,0.0,-6.7047648429870605,63.402356999999995,0.045553093477052,18.151294708251953,16.669368743896484,65.08301544189453,-19.32508659362793,63.402356999999995,0.0,,,,,,51.6409456459333,,,,,,,,,,,,,,,,,,,,,-2.525154206359963,,,,,,,,,,,,,,,,,,,,
1.3591170000000048,73.88286590576172,0.8494517469456402,0.2762856205907024,0.0,-6.637477397918701,63.441952,0.048869219055841226,18.223068237304688,16.72079086303711,65.74335479736328,-19.588653564453125,63.441952,0.0,,,,,,51.64093971396953,,,,,,,,,,,,,,,,,,,,,-2.5251437218527957,,,,,,,,,,,,,,,,,,,,
1.3994640000000018,74.60978698730469,0.849800812796039,0.2741912254883092,0.0,-6.56148099899292,63.482299,0.0486946861306418,18.262678146362305,16.75600242614746,66.40605163574219,-19.849401473999023,63.482299,0.0,,,,,,51.64093376082801,,,,,,,,,,,,,,,,,,,,,-2.525133199579109,,,,,,,,,,,,,,,,,,,,
1.4391680000000022,75.33911895751953,0.850149878646438,0.2759365547403035,0.0,-6.581534385681152,63.522003,0.04852015320544236,18.317955017089844,16.782869338989258,67.07100677490234,-20.109783172607422,63.522003,0.0,,,,,,51.64092778739971,,,,,,,,,,,,,,,,,,,,,-2.5251226424102966,,,,,,,,,,,,,,,,,,,,
1.4800329999999988,76.06849670410156,0.8503244115716373,0.27436575841350863,0.0,-6.562378883361816,63.562867999999995,0.05131268000863329,18.346590042114258,16.819400787353516,67.73407745361328,-20.365163803100586,63.562867999999995,0.0,,,,,,51.640921830899906,,,,,,,,,,,,,,,,,,,,,-2.525112084581227,,,,,,,,,,,,,,,,,,,,
1.5200500000000048,76.79986572265625,0.850149878646438,0.27576202181510406,0.0,-6.599941253662109,63.602885,0.05445427266222309,18.37601661682129,16.85055923461914,68.39974975585938,-20.622285842895508,63.602885,0.0,,,,,,51.640915851029185,,,,,,,,,,,,,,,,,,,,,-2.5251014979312196,,,,,,,,,,,,,,,,,,,,
1.559894,77.53243255615234,0.8503244115716373,0.2741912254883092,0.0,-6.618103504180908,63.642728999999996,0.05759586531581287,18.39665412902832,16.890716552734375,69.06745910644531,-20.88058090209961,63.642728999999996,0.0,,,,,,51.64090985285924,,,,,,,,,,,,,,,,,,,,,-2.525090893945714,,,,,,,,,,,,,,,,,,,,
1.5994230000000016,78.26657104492188,0.8499753457212386,0.2750638901143063,0.0,-6.636152744293213,63.682258,0.058643062867009474,18.41619300842285,16.94277000427246,69.73783111572266,-21.14116668701172,63.682258,0.0,,,,,,51.640903830770085,,,,,,,,,,,,,,,,,,,,,-2.5250802672134154,,,,,,,,,,,,,,,,,,,,
1.6391139999999993,79.00171661376953,0.8496262798708396,0.27296949501191314,0.0,-6.5912017822265625,63.721948999999995,0.05707226654021458,18.44289779663086,17.008258819580078,70.41104125976562,-21.400836944580078,63.721948999999995,0.0,,,,,,51.64089778318538,,,,,,,,,,,,,,,,,,,,,-2.5250696259067897,,,,,,,,,,,,,,,,,,,,
1.6794520000000048,79.7365493774414,0.8492772140204407,0.27296949501191314,0.0,-6.5517048835754395,63.762287,0.05497787143782138,18.466440200805664,17.063343048095703,71.08399200439453,-21.65711212158203,63.762287,0.0,,,,,,51.64089173793092,,,,,,,,,,,,,,,,,,,,,-2.525058989130893,,,,,,,,,,,,,,,,,,,,
1.719649000000004,80.47246551513672,0.8492772140204407,0.27192229746071656,0.0,-6.553544998168945,63.802484,0.05113814708343386,18.490222930908203,17.112478256225586,71.7598648071289,-21.91261100769043,63.802484,0.0,,,,,,51.64088566642701,,,,,,,,,,,,,,,,,,,,,-2.5250483366763397,,,,,,,,,,,,,,,,,,,,
1.7591060000000027,81.20991516113281,0.8489281481700419,0.2722713633111154,0.0,-6.576287746429443,63.841941,0.04852015320544236,18.500560760498047,17.145692825317383,72.43826293945312,-22.170055389404297,63.841941,0.0,,,,,,51.64087957223755,,,,,,,,,,,,,,,,,,,,,-2.5250376620272323,,,,,,,,,,,,,,,,,,,,
1.7994680000000045,81.9480972290039,0.8491026810952413,0.2724458962363148,0.0,-6.609317302703857,63.882303,0.04590215932745086,18.517988204956055,17.201135635375977,73.1191177368164,-22.42848777770996,63.882303,0.0,,,,,,51.64087345597936,,,,,,,,,,,,,,,,,,,,,-2.525026976779546,,,,,,,,,,,,,,,,,,,,
1.839492,82.68755340576172,0.848579082319643,0.272096830385916,0.0,-6.592941761016846,63.922326999999996,0.041015237421866746,18.529476165771484,17.24349021911621,73.802490234375,-22.688552856445312,63.922326999999996,0.0,,,,,,51.64086731710415,,,,,,,,,,,,,,,,,,,,,-2.525016273092234,,,,,,,,,,,,,,,,,,,,
1.8794740000000019,83.42460632324219,0.848579082319643,0.2724458962363148,0.0,-6.598917484283447,63.962309,0.03508111796508602,18.548582077026367,17.31888771057129,74.48664855957031,-22.944660186767578,63.962309,0.0,,,,,,51.640861171169696,,,,,,,,,,,,,,,,,,,,,-2.525005604195896,,,,,,,,,,,,,,,,,,,,
1.9196360000000041,84.16276550292969,0.8477064176936459,0.27174776453551713,0.0,-6.571127891540527,64.002471,0.029670597283903602,18.542566299438477,17.367307662963867,75.1740493774414,-23.2016658782959,64.002471,0.0,,,,,,51.640854996107265,,,,,,,,,,,,,,,,,,,,,-2.524994919289763,,,,,,,,,,,,,,,,,,,,
1.9595250000000064,84.90142059326172,0.8475318847684464,0.27314402793711257,0.0,-6.633735656738281,64.04236,0.02495820830351891,18.552188873291016,17.426258087158203,75.86434173583984,-23.4596004486084,64.04236,0.0,,,,,,51.64084879506954,,,,,,,,,,,,,,,,,,,,,-2.5249842272087926,,,,,,,,,,,,,,,,,,,,
1.9999359999999982,85.64057159423828,0.8471828189180476,0.2724458962363148,0.0,-6.640035629272461,64.082771,0.02076941809873252,18.539234161376953,17.45976448059082,76.55716705322266,-23.71992301940918,64.082771,0.0,,,,,,51.64084257127771,,,,,,,,,,,,,,,,,,,,,-2.5249735279529184,,,,,,,,,,,,,,,,,,,,
2.0394329999999954,86.39835357666016,0.8471828189180476,0.2736676267127109,0.0,-6.714691638946533,64.12226799999999,0.019024088846738195,18.543264389038086,17.528697967529297,77.27007293701172,-23.98917007446289,64.12226799999999,0.0,,,,,,51.640836167098044,,,,,,,,,,,,,,,,,,,,,-2.524962559016148,,,,,,,,,,,,,,,,,,,,
2.0794189999999944,87.13560485839844,0.8470082859928482,0.273318560862312,0.0,-6.673640727996826,64.16225399999999,0.019024088846738195,18.53622055053711,17.572980880737305,77.96587371826172,-24.249921798706055,64.16225399999999,0.0,,,,,,51.64082991657702,,,,,,,,,,,,,,,,,,,,,-2.524951887265949,,,,,,,,,,,,,,,,,,,,
2.119523000000008,87.87334442138672,0.8475318847684464,0.2741912254883092,0.0,-6.71034049987793,64.202358,0.020245819323134222,18.54967498779297,17.632953643798828,78.66477966308594,-24.510761260986328,64.202358,0.0,,,,,,51.64082363816168,,,,,,,,,,,,,,,,,,,,,-2.5249412084514646,,,,,,,,,,,,,,,,,,,,
2.159281,88.61182403564453,0.8482300164692442,0.27349309378751147,0.0,-6.711441993713379,64.242116,0.02303834612632515,18.537473678588867,17.654855728149414,79.3658676147461,-24.773418426513672,64.242116,0.0,,,,,,51.64081734014491,,,,,,,,,,,,,,,,,,,,,-2.524930518928042,,,,,,,,,,,,,,,,,,,,
2.1998730000000037,89.35074615478516,0.8492772140204407,0.27541295596470516,0.0,-6.812260627746582,64.282708,0.024783675378319478,18.55125617980957,17.697628021240234,80.06886291503906,-25.038618087768555,64.282708,0.0,,,,,,51.64081102499405,,,,,,,,,,,,,,,,,,,,,-2.5249198230026955,,,,,,,,,,,,,,,,,,,,
2.2394669999999977,90.09014129638672,0.849800812796039,0.27436575841350863,0.0,-6.8490471839904785,64.322302,0.025656340004316644,18.544593811035156,17.70591926574707,80.77339172363281,-25.30729866027832,64.322302,0.0,,,,,,51.64080469606737,,,,,,,,,,,,,,,,,,,,,-2.5249091202335934,,,,,,,,,,,,,,,,,,,,
2.279479000000002,90.82673645019531,0.8506734774220363,0.2762856205907024,0.0,-6.930299282073975,64.362314,0.027925268031909273,18.56700897216797,17.730222702026367,81.4763412475586,-25.575862884521484,64.362314,0.0,,,,,,51.64079838132772,,,,,,,,,,,,,,,,,,,,,-2.524898457997661,,,,,,,,,,,,,,,,,,,,
2.319628999999999,91.56439971923828,0.8513716091228339,0.27454029133870805,0.0,-6.93179988861084,64.402464,0.028797932657906436,18.559961318969727,17.744792938232422,82.18061065673828,-25.84634780883789,64.402464,0.0,,,,,,51.64079205473128,,,,,,,,,,,,,,,,,,,,,-2.524887780303785,,,,,,,,,,,,,,,,,,,,
2.3591630000000023,92.30337524414062,0.8524188066740306,0.2762856205907024,0.0,-6.9996442794799805,64.441998,0.030368728984701335,18.602005004882812,17.73402976989746,82.88579559326172,-26.119657516479492,64.441998,0.0,,,,,,51.64078571991046,,,,,,,,,,,,,,,,,,,,,-2.5248770836178713,,,,,,,,,,,,,,,,,,,,
2.399442999999998,93.04418182373047,0.8534660042252271,0.27454029133870805,0.0,-6.988370895385742,64.482278,0.03438298626428829,18.62952995300293,17.725082397460938,83.59095764160156,-26.394121170043945,64.482278,0.0,,,,,,51.640779385295254,,,,,,,,,,,,,,,,,,,,,-2.524866360429931,,,,,,,,,,,,,,,,,,,,
2.4392209999999963,93.78699493408203,0.8546877347016232,0.27680921936630065,0.0,-7.060682773590088,64.52205599999999,0.041713369122664476,18.67333221435547,17.701223373413086,84.29615783691406,-26.670963287353516,64.52205599999999,0.0,,,,,,51.640773050337366,,,,,,,,,,,,,,,,,,,,,-2.5248556081999283,,,,,,,,,,,,,,,,,,,,
2.4800109999999975,94.52855682373047,0.8566075968788169,0.2762856205907024,0.0,-7.098297119140625,64.562846,0.05183627878423159,18.7089900970459,17.685588836669922,84.99746704101562,-26.94712257385254,64.562846,0.0,,,,,,51.64076675033305,,,,,,,,,,,,,,,,,,,,,-2.5248448740836262,,,,,,,,,,,,,,,,,,,,
2.5200400000000016,95.2727279663086,0.8574802615048142,0.2776818839922978,0.0,-7.1453399658203125,64.602875,0.05707226654021458,18.753705978393555,17.669662475585938,85.69918823242188,-27.226518630981445,64.602875,0.0,,,,,,51.64076044662777,,,,,,,,,,,,,,,,,,,,,-2.524834102200797,,,,,,,,,,,,,,,,,,,,
2.5598400000000012,96.01934814453125,0.857829327355213,0.27680921936630065,0.0,-7.1460161209106445,64.642675,0.06283185307179587,18.80609893798828,17.659343719482422,86.40058135986328,-27.506807327270508,64.642675,0.0,,,,,,51.64075414586955,,,,,,,,,,,,,,,,,,,,,-2.524823294870442,,,,,,,,,,,,,,,,,,,,
2.599663999999997,96.76889038085938,0.8580038602804123,0.2775073510670984,0.0,-7.1636152267456055,64.68249899999999,0.06789330790257943,18.852161407470703,17.647981643676758,87.10224914550781,-27.78879737854004,64.68249899999999,0.0,,,,,,51.640747842644025,,,,,,,,,,,,,,,,,,,,,-2.5248124452456184,,,,,,,,,,,,,,,,,,,,
2.6392980000000037,97.52030944824219,0.8583529261308113,0.2769837522915001,0.0,-7.191595554351807,64.722133,0.06981317007977318,18.897499084472656,17.63505744934082,87.80396270751953,-28.071414947509766,64.722133,0.0,,,,,,51.64074153900728,,,,,,,,,,,,,,,,,,,,,-2.524801568456212,,,,,,,,,,,,,,,,,,,,
2.6794650000000004,98.27255249023438,0.8583529261308113,0.277332818141899,0.0,-7.199014186859131,64.7623,0.0715584993317675,18.931596755981445,17.62196159362793,88.50157928466797,-28.353130340576172,64.7623,0.0,,,,,,51.64073527217459,,,,,,,,,,,,,,,,,,,,,-2.5247906797414323,,,,,,,,,,,,,,,,,,,,
2.719681999999999,99.02704620361328,0.8583529261308113,0.2776818839922978,0.0,-7.212970733642578,64.802517,0.0778416846389471,18.985145568847656,17.624731063842773,89.19963836669922,-28.6352596282959,64.802517,0.0,,,,,,51.640729001366786,,,,,,,,,,,,,,,,,,,,,-2.5247797584507503,,,,,,,,,,,,,,,,,,,,
2.7590800000000044,99.78398895263672,0.8587019919812102,0.27785641691749724,0.0,-7.189640998840332,64.841915,0.08587019919812101,19.017765045166016,17.616823196411133,89.89850616455078,-28.918415069580078,64.841915,0.0,,,,,,51.64072272329412,,,,,,,,,,,,,,,,,,,,,-2.5247688017129146,,,,,,,,,,,,,,,,,,,,
2.7994310000000056,100.54251098632812,0.8597491895324068,0.27838001569309556,0.0,-7.21948766708374,64.882266,0.091106186954104,19.05658531188965,17.632827758789062,90.59828186035156,-29.20172691345215,64.882266,0.0,,,,,,51.64071643706563,,,,,,,,,,,,,,,,,,,,,-2.5247578221178357,,,,,,,,,,,,,,,,,,,,
2.839266000000002,101.30294799804688,0.8604473212332044,0.27785641691749724,0.0,-7.18332052230835,64.922101,0.09337511498169662,19.081972122192383,17.621501922607422,91.2987289428711,-29.48613739013672,64.922101,0.0,,,,,,51.64071014480592,,,,,,,,,,,,,,,,,,,,,-2.524746814806216,,,,,,,,,,,,,,,,,,,,
2.879455,102.06392669677734,0.8614945187844011,0.2789036144686939,0.0,-7.180502891540527,64.96229,0.09826203688728075,19.15658950805664,17.620349884033203,91.9961929321289,-29.7669620513916,64.96229,0.0,,,,,,51.64070387934396,,,,,,,,,,,,,,,,,,,,,-2.5247357996557263,,,,,,,,,,,,,,,,,,,,
2.9195259999999976,102.82788848876953,0.8628907821859965,0.2780309498426967,0.0,-7.118683815002441,65.002361,0.10437068926926091,19.195409774780273,17.600675582885742,92.69398498535156,-30.047510147094727,65.002361,0.0,,,,,,51.64069761093493,,,,,,,,,,,,,,,,,,,,,-2.524724741327377,,,,,,,,,,,,,,,,,,,,
2.9596600000000066,103.594482421875,0.8646361114379908,0.27960174616949157,0.0,-7.125813961029053,65.042495,0.10890854532444617,19.271276473999023,17.602874755859375,93.39234161376953,-30.327449798583984,65.042495,0.0,,,,,,51.64069133745421,,,,,,,,,,,,,,,,,,,,,-2.5247136449013756,,,,,,,,,,,,,,,,,,,,
3.0000180000000043,104.36393737792969,0.8656833089891874,0.27820548276789614,0.0,-7.0647711753845215,65.082853,0.11065387457644049,19.316225051879883,17.57735824584961,94.09087371826172,-30.60698890686035,65.082853,0.0,,,,,,51.64068506239715,,,,,,,,,,,,,,,,,,,,,-2.524702507064506,,,,,,,,,,,,,,,,,,,,
3.039279999999998,105.1362533569336,0.8669050394655835,0.27977627909469105,0.0,-7.076618671417236,65.122115,0.11065387457644049,19.392330169677734,17.571060180664062,94.78938293457031,-30.886096954345703,65.122115,0.0,,,,,,51.640678787545696,,,,,,,,,,,,,,,,,,,,,-2.5246913278167273,,,,,,,,,,,,,,,,,,,,
3.0794480000000064,105.91040802001953,0.8677777040915806,0.27785641691749724,0.0,-7.022565841674805,65.162283,0.10978120995044333,19.443927764892578,17.547761917114258,95.48419952392578,-31.161699295043945,65.162283,0.0,,,,,,51.64067254586587,,,,,,,,,,,,,,,,,,,,,-2.5246801219555364,,,,,,,,,,,,,,,,,,,,
3.1195140000000023,106.68771362304688,0.8688249016427773,0.2794272132442922,0.0,-7.0143256187438965,65.202349,0.10925761117484503,19.5272159576416,17.532207489013672,96.17906188964844,-31.43754768371582,65.202349,0.0,,,,,,51.64066630377482,,,,,,,,,,,,,,,,,,,,,-2.5246688704868547,,,,,,,,,,,,,,,,,,,,
3.1591160000000045,107.46809387207031,0.8691739674931761,0.27715828521669955,0.0,-6.899134635925293,65.241951,0.10821041362364843,19.58147430419922,17.54572296142578,96.8745346069336,-31.71078109741211,65.241951,0.0,,,,,,51.640660056200865,,,,,,,,,,,,,,,,,,,,,-2.5246575745152477,,,,,,,,,,,,,,,,,,,,
3.199737000000006,108.25103759765625,0.8681267699419796,0.278554548618295,0.0,-6.8163909912109375,65.282572,0.10402162341886204,19.62983512878418,17.598886489868164,97.57205963134766,-31.98155975341797,65.282572,0.0,,,,,,51.64065379019061,,,,,,,,,,,,,,,,,,,,,-2.52464624144048,,,,,,,,,,,,,,,,,,,,
3.2392560000000046,109.0352554321289,0.8663814406899852,0.2764601535159018,0.0,-6.693634510040283,65.322091,0.09930923443847736,19.644426345825195,17.673242568969727,98.27274322509766,-32.24772644042969,65.322091,0.0,,,,,,51.64064749580628,,,,,,,,,,,,,,,,,,,,,-2.5246348899268165,,,,,,,,,,,,,,,,,,,,
3.2794600000000074,109.81985473632812,0.8653342431387886,0.2775073510670984,0.0,-6.6957902908325195,65.362295,0.09494591130849153,19.65589714050293,17.71840476989746,98.97313690185547,-32.50840377807617,65.362295,0.0,,,,,,51.64064120402633,,,,,,,,,,,,,,,,,,,,,-2.524623532894353,,,,,,,,,,,,,,,,,,,,
3.319482999999998,110.60440063476562,0.8651597102135892,0.27663468644110123,0.0,-6.745580673217773,65.402318,0.08970992355250854,19.6458797454834,17.74310874938965,99.67549896240234,-32.77070617675781,65.402318,0.0,,,,,,51.64063489456399,,,,,,,,,,,,,,,,,,,,,-2.524612176638726,,,,,,,,,,,,,,,,,,,,
3.359082000000008,111.38929748535156,0.8649851772883898,0.2769837522915001,0.0,-6.803035259246826,65.441917,0.08866272600131195,19.6358699798584,17.77164077758789,100.37977600097656,-33.03650665283203,65.441917,0.0,,,,,,51.64062856789901,,,,,,,,,,,,,,,,,,,,,-2.5246008153067607,,,,,,,,,,,,,,,,,,,,
3.399501000000008,112.173828125,0.8660323748395863,0.2762856205907024,0.0,-6.894927978515625,65.482336,0.08639379797371932,19.64219856262207,17.7700252532959,101.0853500366211,-33.305198669433594,65.482336,0.0,,,,,,51.64062222958284,,,,,,,,,,,,,,,,,,,,,-2.5245894592793663,,,,,,,,,,,,,,,,,,,,
3.4392520000000033,112.95917510986328,0.8672541053159823,0.2759365547403035,0.0,-6.968636512756348,65.522087,0.08168140899333462,19.646310806274414,17.762910842895508,101.7913589477539,-33.57859802246094,65.522087,0.0,,,,,,51.64061588736009,,,,,,,,,,,,,,,,,,,,,-2.5245780914385136,,,,,,,,,,,,,,,,,,,,
3.48001,113.74335479736328,0.8677777040915806,0.27541295596470516,0.0,-7.068049430847168,65.562845,0.0778416846389471,19.66421127319336,17.745073318481445,102.49559783935547,-33.85057830810547,65.562845,0.0,,,,,,51.64060956103779,,,,,,,,,,,,,,,,,,,,,-2.5245667404971432,,,,,,,,,,,,,,,,,,,,
3.5200770000000077,114.5289306640625,0.8691739674931761,0.27523842303950574,0.0,-7.127140522003174,65.602912,0.08185594191853406,19.68114471435547,17.70291519165039,103.19914245605469,-34.12770080566406,65.602912,0.0,,,,,,51.6406032409523,,,,,,,,,,,,,,,,,,,,,-2.5245553693487213,,,,,,,,,,,,,,,,,,,,
3.5596750000000057,115.31513214111328,0.8702211650443727,0.27523842303950574,0.0,-7.226577281951904,65.64251,0.08552113334772216,19.692529678344727,17.699668884277344,103.90251159667969,-34.407981872558594,65.64251,0.0,,,,,,51.64059692244316,,,,,,,,,,,,,,,,,,,,,-2.5245439891475687,,,,,,,,,,,,,,,,,,,,
3.599606999999999,116.1017074584961,0.8693485004183756,0.27436575841350863,0.0,-7.241247177124023,65.682442,0.08621926504851989,19.67670440673828,17.705158233642578,104.60638427734375,-34.69225311279297,65.682442,0.0,,,,,,51.64059059941061,,,,,,,,,,,,,,,,,,,,,-2.5245326035383386,,,,,,,,,,,,,,,,,,,,
3.6394670000000033,116.88810729980469,0.8691739674931761,0.27401669256310973,0.0,-7.24746561050415,65.722302,0.0825540736193318,19.690532684326172,17.746057510375977,105.31193542480469,-34.97683334350586,65.722302,0.0,,,,,,51.64058426130004,,,,,,,,,,,,,,,,,,,,,-2.524521220472899,,,,,,,,,,,,,,,,,,,,
3.679426999999997,117.67346954345703,0.8681267699419796,0.2727949620867137,0.0,-7.192194938659668,65.76226199999999,0.07592182246175333,19.673805236816406,17.773420333862305,106.01619720458984,-35.25955581665039,65.76226199999999,0.0,,,,,,51.64057793477213,,,,,,,,,,,,,,,,,,,,,-2.5245098524296448,,,,,,,,,,,,,,,,,,,,
3.7196360000000013,118.4578628540039,0.866730506540384,0.2724458962363148,0.0,-7.200378894805908,65.802471,0.05707226654021458,19.63702392578125,17.863262176513672,106.72374725341797,-35.54151153564453,65.802471,0.0,,,,,,51.64057157870503,,,,,,,,,,,,,,,,,,,,,-2.5244984984161825,,,,,,,,,,,,,,,,,,,,
3.7590920000000025,119.24006652832031,0.8648106443631902,0.2707005669843205,0.0,-7.172389984130859,65.841927,0.009773843811168246,19.552703857421875,17.958221435546875,107.43585968017578,-35.82411193847656,65.841927,0.0,,,,,,51.64056518165315,,,,,,,,,,,,,,,,,,,,,-2.524487176102887,,,,,,,,,,,,,,,,,,,,
3.7994190000000074,120.0196304321289,0.8628907821859965,0.2696533694331239,0.0,-7.242192268371582,65.882254,-0.06056292504420324,19.50289535522461,18.048778533935547,108.15227508544922,-36.1079216003418,65.882254,0.0,,,,,,51.640558745946734,,,,,,,,,,,,,,,,,,,,,-2.52447589200547,,,,,,,,,,,,,,,,,,,,
3.839225000000006,120.81721496582031,0.8609709200088027,0.2659881780039358,0.0,-7.1984944343566895,65.92206,-0.1408480706359424,19.45863151550293,18.110261917114258,108.89009094238281,-36.400272369384766,65.92206,0.0,,,,,,51.640552117995675,,,,,,,,,,,,,,,,,,,,,-2.5244643470665094,,,,,,,,,,,,,,,,,,,,
3.8794499999999985,121.59197235107422,0.860272788308005,0.26249751949994715,0.0,-7.207468032836914,65.962285,-0.21572269554649912,19.452213287353516,18.174394607543945,109.6122055053711,-36.68239212036133,65.962285,0.0,,,,,,51.64054563109256,,,,,,,,,,,,,,,,,,,,,-2.524453132552861,,,,,,,,,,,,,,,,,,,,
3.919466000000007,122.3674545288086,0.860621854158404,0.2583087292951608,0.0,-7.121150493621826,66.002301,-0.2790781473938933,19.460628509521484,18.20214080810547,110.3365478515625,-36.964317321777344,66.002301,0.0,,,,,,51.640539124176804,,,,,,,,,,,,,,,,,,,,,-2.5244419075516924,,,,,,,,,,,,,,,,,,,,
3.959657,123.14397430419922,0.8611454529340022,0.25621433419276757,0.0,-7.065586090087891,66.042492,-0.34121186876489146,19.49564552307129,18.25502586364746,111.06310272216797,-37.24346160888672,66.042492,0.0,,,,,,51.64053259738549,,,,,,,,,,,,,,,,,,,,,-2.524430667535103,,,,,,,,,,,,,,,,,,,,
3.999996000000003,123.92289733886719,0.8621926504851988,0.2530727415391778,0.0,-6.921352863311768,66.082831,-0.39584067435231396,19.548118591308594,18.25710105895996,111.79097747802734,-37.51937484741211,66.082831,0.0,,,,,,51.64052605873738,,,,,,,,,,,,,,,,,,,,,-2.5244193927345875,,,,,,,,,,,,,,,,,,,,
4.039464000000002,124.70328521728516,0.8614945187844011,0.2525491427635795,0.0,-6.9206438064575195,66.122299,-0.4441862946325569,19.557754516601562,18.320165634155273,112.52050018310547,-37.792640686035156,66.122299,0.0,,,,,,51.6405195052854,,,,,,,,,,,,,,,,,,,,,-2.5244080967340268,,,,,,,,,,,,,,,,,,,,
4.079472000000003,125.47870635986328,0.860621854158404,0.2501056818107874,0.0,-6.900936126708984,66.162307,-0.48939032225921,19.505279541015625,18.394609451293945,113.2546157836914,-38.06443405151367,66.162307,0.0,,,,,,51.6405129105745,,,,,,,,,,,,,,,,,,,,,-2.5243968726327997,,,,,,,,,,,,,,,,,,,,
4.119621000000002,126.25206756591797,0.8595746566072073,0.25080381351158515,0.0,-7.030975341796875,66.202456,-0.5318018230826722,19.423656463623047,18.50774574279785,113.99282836914062,-38.33926010131836,66.202456,0.0,,,,,,51.640506279059544,,,,,,,,,,,,,,,,,,,,,-2.524385678354276,,,,,,,,,,,,,,,,,,,,
4.159117999999999,127.02249145507812,0.8597491895324068,0.24923301718479024,0.0,-7.088418006896973,66.241953,-0.5656612105713621,19.321319580078125,18.600048065185547,114.73491668701172,-38.61825942993164,66.241953,0.0,,,,,,51.64049961272809,,,,,,,,,,,,,,,,,,,,,-2.524374526598628,,,,,,,,,,,,,,,,,,,,
4.199853999999995,127.78892517089844,0.8587019919812102,0.24993114888558798,0.0,-7.214992046356201,66.28268899999999,-0.5993460651348528,19.213228225708008,18.75060272216797,115.48238372802734,-38.90184020996094,66.28268899999999,0.0,,,,,,51.64049289807847,,,,,,,,,,,,,,,,,,,,,-2.5243634326066986,,,,,,,,,,,,,,,,,,,,
4.239111999999999,128.55227661132812,0.860272788308005,0.24783675378319478,0.0,-7.220431804656982,66.321947,-0.6375687757535285,19.139892578125,18.844419479370117,116.23462677001953,-39.18793487548828,66.321947,0.0,,,,,,51.64048614052505,,,,,,,,,,,,,,,,,,,,,-2.524352383236292,,,,,,,,,,,,,,,,,,,,
4.279434000000002,129.31085205078125,0.8594001236820079,0.2483603525587931,0.0,-7.2780609130859375,66.362269,-0.6777113485493982,19.076824188232422,18.96632194519043,116.99342346191406,-39.474605560302734,66.362269,0.0,,,,,,51.64047932409885,,,,,,,,,,,,,,,,,,,,,-2.524341403005051,,,,,,,,,,,,,,,,,,,,
4.319477999999997,130.0680694580078,0.8609709200088027,0.24678955623199822,0.0,-7.254963397979736,66.40231299999999,-0.7190756518216638,19.042402267456055,19.024425506591797,117.75541687011719,-39.761878967285156,66.40231299999999,0.0,,,,,,51.640472478955886,,,,,,,,,,,,,,,,,,,,,-2.5243304424360518,,,,,,,,,,,,,,,,,,,,
4.359276999999999,130.8265380859375,0.8604473212332044,0.24678955623199822,0.0,-7.152065277099609,66.442112,-0.7623598172711231,19.119003295898438,19.031002044677734,118.51924133300781,-40.047813415527344,66.442112,0.0,,,,,,51.640465617364185,,,,,,,,,,,,,,,,,,,,,-2.5243194637594177,,,,,,,,,,,,,,,,,,,,
4.399453000000001,131.58912658691406,0.8611454529340022,0.244695161129605,0.0,-7.0271501541137695,66.482288,-0.7974409352362092,19.197067260742188,18.98058319091797,119.2811050415039,-40.328548431396484,66.482288,0.0,,,,,,51.64045877338635,,,,,,,,,,,,,,,,,,,,,-2.524308425449517,,,,,,,,,,,,,,,,,,,,
4.439228000000007,132.35385131835938,0.857829327355213,0.24609142453120045,0.0,-6.961111545562744,66.522063,-0.8234463410909246,19.217845916748047,19.00850486755371,120.0430908203125,-40.606773376464844,66.522063,0.0,,,,,,51.640451928311926,,,,,,,,,,,,,,,,,,,,,-2.5242973562207065,,,,,,,,,,,,,,,,,,,,
4.480032000000001,133.11585998535156,0.8562585310284181,0.24591689160600103,0.0,-6.9338860511779785,66.562867,-0.8510225432724351,19.165348052978516,19.104795455932617,120.80904388427734,-40.88158416748047,66.562867,0.0,,,,,,51.64044504759857,,,,,,,,,,,,,,,,,,,,,-2.5242863263122266,,,,,,,,,,,,,,,,,,,,
4.520022000000004,133.87442016601562,0.8524188066740306,0.24731315500759649,0.0,-6.996099472045898,66.602857,-0.8836602002847291,19.036340713500977,19.240989685058594,121.58010864257812,-41.15876007080078,66.602857,0.0,,,,,,51.64043812096581,,,,,,,,,,,,,,,,,,,,,-2.5242753463264482,,,,,,,,,,,,,,,,,,,,
4.559689999999996,134.62911987304688,0.8504989444968367,0.24678955623199822,0.0,-7.045046806335449,66.64252499999999,-0.9189158511750145,18.929290771484375,19.36469268798828,122.35541534423828,-41.43757629394531,66.64252499999999,0.0,,,,,,51.64043115622681,,,,,,,,,,,,,,,,,,,,,-2.5242644222266275,,,,,,,,,,,,,,,,,,,,
4.599623000000001,135.38064575195312,0.8473573518432469,0.24731315500759649,0.0,-7.086527347564697,66.682458,-0.9531243045141033,18.85870361328125,19.415103912353516,123.13456726074219,-41.71930694580078,66.682458,0.0,,,,,,51.64042415694545,,,,,,,,,,,,,,,,,,,,,-2.524253544073311,,,,,,,,,,,,,,,,,,,,
4.639232999999997,136.1302032470703,0.8447393579652555,0.24731315500759649,0.0,-7.135138034820557,66.722068,-0.9820967700972093,18.79988670349121,19.480144500732422,123.91512298583984,-42.00209426879883,66.722068,0.0,,,,,,51.6404171450534,,,,,,,,,,,,,,,,,,,,,-2.5242426944165586,,,,,,,,,,,,,,,,,,,,
4.679288000000007,136.879638671875,0.8405505677604691,0.24661502330679877,0.0,-7.136387348175049,66.762123,-1.0088003076527223,18.755931854248047,19.50114631652832,124.69599914550781,-42.284942626953125,66.762123,0.0,,,,,,51.64041013028281,,,,,,,,,,,,,,,,,,,,,-2.5242318465302733,,,,,,,,,,,,,,,,,,,,
4.719480999999995,137.6267547607422,0.8347909812288878,0.24609142453120045,0.0,-7.196531295776367,66.80231599999999,-1.0321877196294464,18.680702209472656,19.59836196899414,125.47893524169922,-42.569034576416016,66.80231599999999,0.0,,,,,,51.64040309700739,,,,,,,,,,,,,,,,,,,,,-2.5242210322208907,,,,,,,,,,,,,,,,,,,,
4.759077999999995,138.371826171875,0.8299040593233037,0.24452062820440557,0.0,-7.189115047454834,66.84191299999999,-1.0547024669801734,18.6456241607666,19.604904174804688,126.2644271850586,-42.854923248291016,66.84191299999999,0.0,,,,,,51.64039604077227,,,,,,,,,,,,,,,,,,,,,-2.5242102475128867,,,,,,,,,,,,,,,,,,,,
4.799495999999998,139.11683654785156,0.8234463410909246,0.24382249650360785,0.0,-7.195626735687256,66.882331,-1.0737265558269116,18.655839920043945,19.623851776123047,127.04987335205078,-43.14048767089844,66.882331,0.0,,,,,,51.64038898494838,,,,,,,,,,,,,,,,,,,,,-2.5241994636917138,,,,,,,,,,,,,,,,,,,,
4.839295,139.8626251220703,0.8182103533349417,0.24172810140121465,0.0,-7.14990234375,66.92213,-1.089958117870459,18.667675018310547,19.586257934570312,127.8349838256836,-43.42566680908203,66.92213,0.0,,,,,,51.64038193214008,,,,,,,,,,,,,,,,,,,,,-2.5241886686092316,,,,,,,,,,,,,,,,,,,,
4.879454000000003,140.60787963867188,0.8084365095237734,0.24085543677521748,0.0,-7.169742584228516,66.962289,-1.0999064946068264,18.634798049926758,19.649206161499023,128.617919921875,-43.70906448364258,66.962289,0.0,,,,,,51.640374898864664,,,,,,,,,,,,,,,,,,,,,-2.5241778812597895,,,,,,,,,,,,,,,,,,,,
4.919614000000003,141.35067749023438,0.7979645340118074,0.24015730507441974,0.0,-7.167585849761963,67.002449,-1.100953692158023,18.52991485595703,19.72179412841797,129.40341186523438,-43.99348068237305,67.002449,0.0,,,,,,51.64036784262955,,,,,,,,,,,,,,,,,,,,,-2.5241671294752943,,,,,,,,,,,,,,,,,,,,
4.9596639999999965,142.0879364013672,0.7829547024446563,0.2415535684760152,0.0,-7.229355335235596,67.04249899999999,-1.1058406140636072,18.358522415161133,19.932781219482422,130.19517517089844,-44.27935028076172,67.04249899999999,0.0,,,,,,51.6403607300575,,,,,,,,,,,,,,,,,,,,,-2.5241564578736138,,,,,,,,,,,,,,,,,,,,
5.000001000000005,142.81785583496094,0.7712609964562942,0.24068090385001803,0.0,-7.286645412445068,67.082836,-1.1086331408667982,18.141754150390625,20.097549438476562,130.99415588378906,-44.56774139404297,67.082836,0.0,,,,,,51.640353552650005,,,,,,,,,,,,,,,,,,,,,-2.5241458925181512,,,,,,,,,,,,,,,,,,,,
5.039282000000007,143.53762817382812,0.7564256978143424,0.24137903555081577,0.0,-7.376563549041748,67.122117,-1.103397153110815,17.865259170532227,20.377845764160156,131.80284118652344,-44.85951614379883,67.122117,0.0,,,,,,51.64034628806419,,,,,,,,,,,,,,,,,,,,,-2.524135474050552,,,,,,,,,,,,,,,,,,,,
5.0793350000000075,144.24830627441406,0.7461282552275759,0.23911010752322315,0.0,-7.382726192474365,67.16217,-1.0999064946068264,17.552406311035156,20.65732192993164,132.62269592285156,-45.15273666381836,67.16217,0.0,,,,,,51.64033892314106,,,,,,,,,,,,,,,,,,,,,-2.524125187231179,,,,,,,,,,,,,,,,,,,,
5.119462000000006,144.94525146484375,0.7332128187628179,0.23788837704682714,0.0,-7.4752678871154785,67.202297,-1.1023499555596186,17.199880599975586,20.99943733215332,133.45565795898438,-45.448387145996094,67.202297,0.0,,,,,,51.640331440472366,,,,,,,,,,,,,,,,,,,,,-2.524115099206202,,,,,,,,,,,,,,,,,,,,
5.159121000000006,145.62930297851562,0.7250097712784445,0.23527038316883564,0.0,-7.471865177154541,67.241956,-1.104618883587211,16.90731430053711,21.2530460357666,134.30001831054688,-45.74586486816406,67.241956,0.0,,,,,,51.64032385541027,,,,,,,,,,,,,,,,,,,,,-2.5241051978268807,,,,,,,,,,,,,,,,,,,,
5.199885000000002,146.3016357421875,0.7145377957664785,0.23439771854283845,0.0,-7.513718128204346,67.28272,-1.1110766018195901,16.623876571655273,21.51790428161621,135.15533447265625,-46.044532775878906,67.28272,0.0,,,,,,51.64031617192989,,,,,,,,,,,,,,,,,,,,,-2.5240954660857953,,,,,,,,,,,,,,,,,,,,
5.239122000000002,146.9629364013672,0.7070328799829029,0.23282692221604356,0.0,-7.525031089782715,67.321957,-1.11421819447318,16.350204467773438,21.734540939331055,136.01954650878906,-46.34406280517578,67.321957,0.0,,,,,,51.64030840853604,,,,,,,,,,,,,,,,,,,,,-2.5240858940427793,,,,,,,,,,,,,,,,,,,,
5.279452999999997,147.60833740234375,0.696211838620538,0.2324778563656447,0.0,-7.579826831817627,67.36228799999999,-1.1140436615479805,16.05015754699707,21.994176864624023,136.8997344970703,-46.64733123779297,67.36228799999999,0.0,,,,,,51.64030050162695,,,,,,,,,,,,,,,,,,,,,-2.5240765521592046,,,,,,,,,,,,,,,,,,,,
5.319626000000007,148.24375915527344,0.6888814557621619,0.23020892833805207,0.0,-7.5431694984436035,67.402461,-1.1075859433156015,15.826920509338379,22.183271408081055,137.78761291503906,-46.950538635253906,67.402461,0.0,,,,,,51.64029252563315,,,,,,,,,,,,,,,,,,,,,-2.5240673547329067,,,,,,,,,,,,,,,,,,,,
5.359099000000008,148.87094116210938,0.6784094802501959,0.22951079663725435,0.0,-7.506091594696045,67.441934,-1.100953692158023,15.632711410522461,22.361909866333008,138.68304443359375,-47.25264358520508,67.441934,0.0,,,,,,51.64028448178829,,,,,,,,,,,,,,,,,,,,,-2.5240582765843094,,,,,,,,,,,,,,,,,,,,
5.399498999999999,149.49075317382812,0.6700318998406232,0.22898719786165603,0.0,-7.473118305206299,67.482334,-1.094845039776043,15.426170349121094,22.529611587524414,139.5840606689453,-47.55274200439453,67.482334,0.0,,,,,,51.64027638777479,,,,,,,,,,,,,,,,,,,,,-2.524049305122806,,,,,,,,,,,,,,,,,,,,
5.439228000000007,150.10211181640625,0.6581636609270617,0.22968532956245377,0.0,-7.455969333648682,67.522063,-1.0927506446736497,15.2222900390625,22.691408157348633,140.49224853515625,-47.8525505065918,67.522063,0.0,,,,,,51.640268229337046,,,,,,,,,,,,,,,,,,,,,-2.524040456031006,,,,,,,,,,,,,,,,,,,,
5.479983999999995,150.70343017578125,0.646993553714298,0.2288126649364566,0.0,-7.391030788421631,67.56281899999999,-1.0927506446736497,15.06055736541748,22.837186813354492,141.40757751464844,-48.1517333984375,67.56281899999999,0.0,,,,,,51.64026000674922,,,,,,,,,,,,,,,,,,,,,-2.5240317522796127,,,,,,,,,,,,,,,,,,,,
5.5200749999999985,151.29800415039062,0.6337290513991412,0.22968532956245377,0.0,-7.356398582458496,67.60291,-1.0910053154216555,14.860020637512207,22.98557472229004,142.32882690429688,-48.4494514465332,67.60291,0.0,,,,,,51.64025173097715,,,,,,,,,,,,,,,,,,,,,-2.524023146159593,,,,,,,,,,,,,,,,,,,,
5.559536999999999,151.8852081298828,0.6209881478595825,0.2307325271136504,0.0,-7.341259002685547,67.642372,-1.090830782496456,14.66712474822998,23.148757934570312,143.25534057617188,-48.7451286315918,67.642372,0.0,,,,,,51.64024340791494,,,,,,,,,,,,,,,,,,,,,-2.524014646726409,,,,,,,,,,,,,,,,,,,,
5.599650000000004,152.46449279785156,0.6077236455444256,0.23212879051524585,0.0,-7.3467535972595215,67.682485,-1.090481716646057,14.444350242614746,23.288721084594727,144.18807983398438,-49.04085159301758,67.682485,0.0,,,,,,51.640235028927016,,,,,,,,,,,,,,,,,,,,,-2.5240062619318566,,,,,,,,,,,,,,,,,,,,
5.639316000000001,153.03475952148438,0.5942846103040692,0.23265238929084414,0.0,-7.349283695220947,67.722151,-1.092052512972852,14.200508117675781,23.484712600708008,145.12673950195312,-49.336143493652344,67.722151,0.0,,,,,,51.640226596754836,,,,,,,,,,,,,,,,,,,,,-2.52399800767858,,,,,,,,,,,,,,,,,,,,
5.679465,153.60870361328125,0.5797983775125163,0.23108159296404923,0.0,-7.2833967208862305,67.7623,-1.096939434878436,13.964600563049316,23.64841651916504,146.09756469726562,-49.63901901245117,67.7623,0.0,,,,,,51.640217875633134,,,,,,,,,,,,,,,,,,,,,-2.523989700212307,,,,,,,,,,,,,,,,,,,,
5.719682999999996,154.1588897705078,0.5658357434965616,0.22951079663725435,0.0,-7.225613594055176,67.80251799999999,-1.1023499555596186,13.692207336425781,23.867536544799805,147.0514678955078,-49.931312561035156,67.80251799999999,0.0,,,,,,51.6402093065252,,,,,,,,,,,,,,,,,,,,,-2.52398173663992,,,,,,,,,,,,,,,,,,,,
5.759120000000003,154.69859313964844,0.5511749777798093,0.22776546738526002,0.0,-7.15904426574707,67.841955,-1.1100294042683936,13.417762756347656,24.055910110473633,148.0136260986328,-50.22105026245117,67.841955,0.0,,,,,,51.64020066326086,,,,,,,,,,,,,,,,,,,,,-2.5239739248134474,,,,,,,,,,,,,,,,,,,,
5.799460000000003,155.2266082763672,0.5366887449882564,0.2272418686096617,0.0,-7.125265598297119,67.882295,-1.1128219310715846,13.091897964477539,24.30077362060547,148.98353576660156,-50.50829315185547,67.882295,0.0,,,,,,51.64019195036353,,,,,,,,,,,,,,,,,,,,,-2.5239662821815205,,,,,,,,,,,,,,,,,,,,
5.839187000000003,155.7417755126953,0.5234242426730994,0.22584560520806624,0.0,-7.087719440460205,67.922022,-1.116661655425972,12.760311126708984,24.5059871673584,149.96249389648438,-50.794281005859375,67.922022,0.0,,,,,,51.64018315618201,,,,,,,,,,,,,,,,,,,,,-2.523958825530942,,,,,,,,,,,,,,,,,,,,
5.879336000000002,156.24008178710938,0.509112542806746,0.22444934180647078,0.0,-7.079820156097412,67.962171,-1.116661655425972,12.378449440002441,24.77863883972168,150.9520721435547,-51.07952117919922,67.962171,0.0,,,,,,51.640174266597796,,,,,,,,,,,,,,,,,,,,,-2.5239516129517185,,,,,,,,,,,,,,,,,,,,
5.919502999999999,156.72422790527344,0.4965461721923867,0.22200588085367873,0.0,-6.999192714691162,68.002338,-1.115439924949576,12.032569885253906,24.993938446044922,151.9513397216797,-51.36311340332031,68.002338,0.0,,,,,,51.64016528997234,,,,,,,,,,,,,,,,,,,,,-2.5239446053489742,,,,,,,,,,,,,,,,,,,,
5.959638000000005,157.19459533691406,0.48258353817643207,0.21938788697568723,0.0,-6.926960468292236,68.042473,-1.1171852542015703,11.656681060791016,25.27347183227539,152.9598846435547,-51.642940521240234,68.042473,0.0,,,,,,51.6401562300066,,,,,,,,,,,,,,,,,,,,,-2.5239377972006407,,,,,,,,,,,,,,,,,,,,
6.000012000000005,157.65138244628906,0.4705407663376713,0.21589722847169854,0.0,-6.798994541168213,68.082847,-1.12346843950875,11.333072662353516,25.47483253479004,153.9778289794922,-51.918766021728516,68.082847,0.0,,,,,,51.640147085604,,,,,,,,,,,,,,,,,,,,,-2.5239311856353552,,,,,,,,,,,,,,,,,,,,
6.039116,158.0948486328125,0.45640359939651715,0.21415189921970423,0.0,-6.734499454498291,68.121951,-1.1301006906663285,10.974034309387207,25.73162841796875,155.00462341308594,-52.190303802490234,68.121951,0.0,,,,,,51.64013786169916,,,,,,,,,,,,,,,,,,,,,-2.523924766897964,,,,,,,,,,,,,,,,,,,,
6.079451999999996,158.51980590820312,0.4447098934081552,0.21223203704251048,0.0,-6.644111633300781,68.16228699999999,-1.1335913491703171,10.654441833496094,25.906553268432617,156.0421142578125,-52.459068298339844,68.16228699999999,0.0,,,,,,51.64012854170626,,,,,,,,,,,,,,,,,,,,,-2.5239186160856706,,,,,,,,,,,,,,,,,,,,
6.1196430000000035,158.93218994140625,0.4300491276914028,0.21170843826691219,0.0,-6.5968852043151855,68.202478,-1.1365584088987075,10.30183219909668,26.145021438598633,157.08740234375,-52.72484588623047,68.202478,0.0,,,,,,51.640119151669154,,,,,,,,,,,,,,,,,,,,,-2.5239126472778732,,,,,,,,,,,,,,,,,,,,
6.159265999999995,159.33201599121094,0.41783182292744253,0.2097885760897184,0.0,-6.524170875549316,68.24210099999999,-1.1386528040011006,9.980213165283203,26.306123733520508,158.1399688720703,-52.987937927246094,68.24210099999999,0.0,,,,,,51.6401096962483,,,,,,,,,,,,,,,,,,,,,-2.523906860253378,,,,,,,,,,,,,,,,,,,,
6.199892999999996,159.71849060058594,0.4014257279586958,0.2092649773141201,0.0,-6.5089430809021,68.28272799999999,-1.1362093430483085,9.610806465148926,26.533113479614258,159.20016479492188,-53.249454498291016,68.28272799999999,0.0,,,,,,51.640100172291035,,,,,,,,,,,,,,,,,,,,,-2.523901266497589,,,,,,,,,,,,,,,,,,,,
6.239115000000005,160.0907745361328,0.3876376268679406,0.20699604928652748,0.0,-6.442835807800293,68.32195,-1.1314969540679238,9.218293190002441,26.721214294433594,160.26792907714844,-53.50868606567383,68.32195,0.0,,,,,,51.64009058034565,,,,,,,,,,,,,,,,,,,,,-2.523895878158326,,,,,,,,,,,,,,,,,,,,
6.279458999999996,160.44097900390625,0.37053340019839615,0.20629791758572977,0.0,-6.454936504364014,68.36229399999999,-1.1287044272647329,8.71932315826416,26.97783088684082,161.3480682373047,-53.767024993896484,68.36229399999999,0.0,,,,,,51.64008087723419,,,,,,,,,,,,,,,,,,,,,-2.523890809428351,,,,,,,,,,,,,,,,,,,,
6.319528999999996,160.7718505859375,0.3569198320328404,0.20542525295973257,0.0,-6.506613731384277,68.40236399999999,-1.1321950857687217,8.188541412353516,27.201332092285156,162.43650817871094,-54.026187896728516,68.40236399999999,0.0,,,,,,51.64007109955512,,,,,,,,,,,,,,,,,,,,,-2.5238860205487255,,,,,,,,,,,,,,,,,,,,
6.359108999999997,161.082275390625,0.34033920413889424,0.20577431881013145,0.0,-6.608580112457275,68.44194399999999,-1.1321950857687217,7.683263778686523,27.409727096557617,163.53353881835938,-54.28936004638672,68.44194399999999,0.0,,,,,,51.64006124470404,,,,,,,,,,,,,,,,,,,,,-2.52388152764305,,,,,,,,,,,,,,,,,,,,
6.399522999999995,161.37489318847656,0.32585297134734137,0.20367992370773827,0.0,-6.625432014465332,68.48235799999999,-1.1318460199183227,7.22465705871582,27.602357864379883,164.63729858398438,-54.55428695678711,68.48235799999999,0.0,,,,,,51.64005132940385,,,,,,,,,,,,,,,,,,,,,-2.5238772924995194,,,,,,,,,,,,,,,,,,,,
6.439257000000005,161.6488037109375,0.3087487446777969,0.20158552860534507,0.0,-6.645994663238525,68.522092,-1.1391764027766988,6.738723278045654,27.797636032104492,165.74900817871094,-54.82025146484375,68.522092,0.0,,,,,,51.64004134268871,,,,,,,,,,,,,,,,,,,,,-2.523873328149964,,,,,,,,,,,,,,,,,,,,
6.479987000000001,161.89785766601562,0.29216811678385074,0.19861846887695472,0.0,-6.670567989349365,68.562822,-1.1540117014186508,6.1995954513549805,28.00860595703125,166.8691864013672,-55.088497161865234,68.562822,0.0,,,,,,51.64003127989815,,,,,,,,,,,,,,,,,,,,,-2.5238697236056526,,,,,,,,,,,,,,,,,,,,
6.520066000000007,162.12586975097656,0.273318560862312,0.19565140914856435,0.0,-6.711673736572266,68.602901,-1.169021532985802,5.6478800773620605,28.194229125976562,167.99732971191406,-55.358177185058594,68.602901,0.0,,,,,,51.64002114555558,,,,,,,,,,,,,,,,,,,,,-2.5238664236482835,,,,,,,,,,,,,,,,,,,,
6.559677000000001,162.3335723876953,0.2553416695667704,0.19355701404617115,0.0,-6.737110614776611,68.642512,-1.173908454891386,5.148466110229492,28.369646072387695,169.13168334960938,-55.62896728515625,68.642512,0.0,,,,,,51.64001095542436,,,,,,,,,,,,,,,,,,,,,-2.523863417675028,,,,,,,,,,,,,,,,,,,,
6.599950999999997,162.52395629882812,0.23806290997202656,0.19128808601857852,0.0,-6.6632561683654785,68.682786,-1.1810643048245628,4.716195106506348,28.50571060180664,170.27224731445312,-55.89833450317383,68.682786,0.0,,,,,,51.640000709504505,,,,,,,,,,,,,,,,,,,,,-2.5238606623949256,,,,,,,,,,,,,,,,,,,,
6.639424999999996,162.69595336914062,0.21938788697568723,0.18919369091618532,0.0,-6.657986164093018,68.72225999999999,-1.1906636157105317,4.17325496673584,28.69431495666504,171.41844177246094,-56.16542053222656,68.72225999999999,0.0,,,,,,51.63999041300477,,,,,,,,,,,,,,,,,,,,,-2.523858173268534,,,,,,,,,,,,,,,,,,,,
6.679442999999999,162.8411865234375,0.20158552860534507,0.187448361664191,0.0,-6.640931129455566,68.762278,-1.1957250705413152,3.6105010509490967,28.848291397094727,172.5757293701172,-56.43489074707031,68.762278,0.0,,,,,,51.63998001685309,,,,,,,,,,,,,,,,,,,,,-2.52385607155651,,,,,,,,,,,,,,,,,,,,
6.7196910000000045,162.96334838867188,0.18343410438460403,0.18657569703819382,0.0,-6.688307762145996,68.802526,-1.2014846570728965,2.9749915599823,29.036727905273438,173.7389373779297,-56.70408248901367,68.802526,0.0,,,,,,51.639969567517156,,,,,,,,,,,,,,,,,,,,,-2.5238543038053707,,,,,,,,,,,,,,,,,,,,
6.759262,163.0650177001953,0.16755160819145562,0.18535396656179778,0.0,-6.650001049041748,68.842097,-1.192059879112127,2.526573419570923,29.141849517822266,174.9073486328125,-56.97380828857422,68.842097,0.0,,,,,,51.63995907143938,,,,,,,,,,,,,,,,,,,,,-2.5238528326873424,,,,,,,,,,,,,,,,,,,,
6.799421000000002,163.1493377685547,0.15027284859671178,0.18465583486100007,0.0,-6.599864482879639,68.882256,-1.1885692206081384,2.057436227798462,29.291872024536133,176.08033752441406,-57.24043273925781,68.882256,0.0,,,,,,51.63994853423976,,,,,,,,,,,,,,,,,,,,,-2.523851612702499,,,,,,,,,,,,,,,,,,,,
6.839262999999995,163.2176513671875,0.13526301702956053,0.18343410438460403,0.0,-6.529322147369385,68.92209799999999,-1.1856021608797482,1.6704679727554321,29.37738800048828,177.25753784179688,-57.50477600097656,68.92209799999999,0.0,,,,,,51.639937959208034,,,,,,,,,,,,,,,,,,,,,-2.523850624413851,,,,,,,,,,,,,,,,,,,,
6.8794810000000055,163.26527404785156,0.11868238913561441,0.18291050560900574,0.0,-6.520605564117432,68.962316,-1.1810643048245628,1.2734968662261963,29.491134643554688,178.4391632080078,-57.77086639404297,68.962316,0.0,,,,,,51.639927344425196,,,,,,,,,,,,,,,,,,,,,-2.523849935628714,,,,,,,,,,,,,,,,,,,,
6.919508999999998,163.3013153076172,0.10576695267085637,0.1816887751326097,0.0,-6.436517715454102,69.002344,-1.175130185367782,1.0375206470489502,29.537630081176758,179.62335205078125,-58.03430938720703,69.002344,0.0,,,,,,51.639916706614116,,,,,,,,,,,,,,,,,,,,,-2.5238494144860946,,,,,,,,,,,,,,,,,,,,
6.959611000000002,163.33096313476562,0.08918632477691024,0.18011797880581482,0.0,-6.334447860717773,69.042446,-1.16657807203301,0.8833327889442444,29.635507583618164,180.81007385253906,-58.29354476928711,69.042446,0.0,,,,,,51.63990604604895,,,,,,,,,,,,,,,,,,,,,-2.523848985889781,,,,,,,,,,,,,,,,,,,,
6.999918000000001,163.35426330566406,0.07487462491055674,0.17627825445142728,0.0,-6.183456897735596,69.082753,-1.1660544732574116,0.6242819428443909,29.700708389282227,181.99916076660156,-58.54678726196289,69.082753,0.0,,,,,,51.63989536423749,,,,,,,,,,,,,,,,,,,,,-2.523848649177018,,,,,,,,,,,,,,,,,,,,
7.039102000000007,163.36322021484375,0.055326937288220246,0.1741838593490341,0.0,-6.175472259521484,69.121937,-1.1698941976117991,0.18014797568321228,29.808191299438477,183.1916961669922,-58.796974182128906,69.121937,0.0,,,,,,51.639884651447574,,,,,,,,,,,,,,,,,,,,,-2.5238485200845058,,,,,,,,,,,,,,,,,,,,
7.0794150000000045,163.35629272460938,0.04014257279586958,0.17034413499464657,0.0,-6.094441890716553,69.16225,-1.1704177963873974,-0.20843291282653809,29.884763717651367,184.38905334472656,-59.05023193359375,69.16225,0.0,,,,,,51.639873895342646,,,,,,,,,,,,,,,,,,,,,-2.523848620920678,,,,,,,,,,,,,,,,,,,,
7.119610999999999,163.33535766601562,0.022689280275926284,0.1668534764906579,0.0,-6.010985851287842,69.202446,-1.1747811195173832,-0.5375618934631348,29.972087860107422,185.58956909179688,-59.29939270019531,69.202446,0.0,,,,,,51.639863110863644,,,,,,,,,,,,,,,,,,,,,-2.523848924517506,,,,,,,,,,,,,,,,,,,,
7.1591629999999995,163.302978515625,0.008028514559173916,0.1624901533606721,0.0,-5.885235786437988,69.241998,-1.181587903600161,-0.8427996039390564,30.033802032470703,186.79205322265625,-59.54324722290039,69.241998,0.0,,,,,,51.63985230870224,,,,,,,,,,,,,,,,,,,,,-2.523849393768033,,,,,,,,,,,,,,,,,,,,
7.199904999999994,163.2584228515625,6.273236930443219,0.15917402778188283,0.0,-5.772025108337402,69.28273999999999,-1.1887437535333378,-1.1492807865142822,30.108154296875,187.99720764160156,-59.78211212158203,69.28273999999999,0.0,,,,,,51.639841482553095,,,,,,,,,,,,,,,,,,,,,-2.5238500392742536,,,,,,,,,,,,,,,,,,,,
7.239273000000004,163.20294189453125,6.25770350010047,0.1551597705022959,0.0,-5.64296817779541,69.322108,-1.1931070766633236,-1.4551628828048706,30.16654396057129,189.20420837402344,-60.01503372192383,69.322108,0.0,,,,,,51.639830639818136,,,,,,,,,,,,,,,,,,,,,-2.5238508429242765,,,,,,,,,,,,,,,,,,,,
7.279467000000004,163.13400268554688,6.2397266088049275,0.15236724369910498,0.0,-5.547879695892334,69.362302,-1.1964232022421128,-1.8134078979492188,30.226106643676758,190.41307067871094,-60.24949645996094,69.362302,0.0,,,,,,51.63981978036029,,,,,,,,,,,,,,,,,,,,,-2.523851841382482,,,,,,,,,,,,,,,,,,,,
7.319539999999996,163.051513671875,6.223844112611779,0.1488765851951163,0.0,-5.428478717803955,69.40237499999999,-1.1978194656437082,-2.2005743980407715,30.27879524230957,191.62335205078125,-60.47831726074219,69.40237499999999,0.0,,,,,,51.63980890815468,,,,,,,,,,,,,,,,,,,,,-2.5238530359737443,,,,,,,,,,,,,,,,,,,,
7.3592609999999965,162.95318603515625,6.206390820091836,0.1457349925415265,0.0,-5.3069281578063965,69.44209599999999,-1.2035790521752896,-2.5896236896514893,30.324989318847656,192.8358612060547,-60.70155334472656,69.44209599999999,0.0,,,,,,51.63979801593643,,,,,,,,,,,,,,,,,,,,,-2.523854459828844,,,,,,,,,,,,,,,,,,,,
7.399451000000006,162.8399200439453,6.190857389749086,0.14189526818713902,0.0,-5.181712627410889,69.482286,-1.2124802313604608,-2.999048948287964,30.38113784790039,194.04969787597656,-60.918357849121094,69.482286,0.0,,,,,,51.63978711179284,,,,,,,,,,,,,,,,,,,,,-2.5238560999158492,,,,,,,,,,,,,,,,,,,,
7.439095999999999,162.70980834960938,6.174102228929941,0.13805554383275148,0.0,-5.069404602050781,69.521931,-1.2245230031992216,-3.42071795463562,30.407299041748047,195.26539611816406,-61.129905700683594,69.521931,0.0,,,,,,51.63977619092637,,,,,,,,,,,,,,,,,,,,,-2.5238579838436253,,,,,,,,,,,,,,,,,,,,
7.480044999999997,162.5587615966797,6.157696133961194,0.1340412865531645,0.0,-4.963481903076172,69.56287999999999,-1.2348204457859882,-3.920938491821289,30.441795349121094,196.5110626220703,-61.347007751464844,69.56287999999999,0.0,,,,,,51.63976500084886,,,,,,,,,,,,,,,,,,,,,-2.523860170818293,,,,,,,,,,,,,,,,,,,,
7.520078000000005,162.39080810546875,6.139719242665652,0.1303760951239764,0.0,-4.8667378425598145,69.602913,-1.2414526969435666,-4.421002388000488,30.45517921447754,197.72743225097656,-61.55420684814453,69.602913,0.0,,,,,,51.63975407395119,,,,,,,,,,,,,,,,,,,,,-2.5238626025022906,,,,,,,,,,,,,,,,,,,,
7.559638999999997,162.20362854003906,6.123487680622105,0.12671090369478832,0.0,-4.746184825897217,69.64247399999999,-1.2480849481011451,-4.939320087432861,30.475854873657227,198.9441680908203,-61.75529479980469,69.64247399999999,0.0,,,,,,51.63974314376376,,,,,,,,,,,,,,,,,,,,,-2.523865312481525,,,,,,,,,,,,,,,,,,,,
7.599477999999998,161.99502563476562,6.105510789326564,0.12409290981679684,0.0,-4.665351867675781,69.682313,-1.2529718700067294,-5.474113464355469,30.45804214477539,200.16114807128906,-61.9518928527832,69.682313,0.0,,,,,,51.639732211383176,,,,,,,,,,,,,,,,,,,,,-2.523868332561014,,,,,,,,,,,,,,,,,,,,
7.639266999999997,161.76394653320312,6.088232029731819,0.1228711793404008,0.0,-4.636594772338867,69.72210199999999,-1.2592550553139088,-6.095914363861084,30.438905715942383,201.37704467773438,-62.144744873046875,69.72210199999999,0.0,,,,,,51.639721288734755,,,,,,,,,,,,,,,,,,,,,-2.523871677979943,,,,,,,,,,,,,,,,,,,,
7.679466999999995,161.5073699951172,6.070778737211876,0.12147491593880534,0.0,-4.600796699523926,69.76230199999999,-1.2655382406210884,-6.652539253234863,30.386781692504883,202.5894317626953,-62.34233093261719,69.76230199999999,0.0,,,,,,51.63971039761309,,,,,,,,,,,,,,,,,,,,,-2.523875392469189,,,,,,,,,,,,,,,,,,,,
7.719665999999997,161.2279052734375,6.052976378841534,0.11903145498601328,0.0,-4.574146747589111,69.80250099999999,-1.2728686234794646,-7.276953220367432,30.358959197998047,203.80007934570312,-62.53696060180664,69.80250099999999,0.0,,,,,,51.63969952211772,,,,,,,,,,,,,,,,,,,,,-2.5238794382605736,,,,,,,,,,,,,,,,,,,,
7.759109000000002,160.9249267578125,6.036221218022389,0.11588986233242347,0.0,-4.542369365692139,69.841944,-1.2781046112354475,-7.829126834869385,30.28723907470703,205.00912475585938,-62.72938537597656,69.841944,0.0,,,,,,51.63968866101501,,,,,,,,,,,,,,,,,,,,,-2.523883824409586,,,,,,,,,,,,,,,,,,,,
7.799326000000001,160.59913635253906,6.018418859652046,0.11344640137963143,0.0,-4.516495704650879,69.882161,-1.280722605113439,-8.443296432495117,30.242483139038086,206.2157440185547,-62.91928482055664,69.882161,0.0,,,,,,51.63967782170687,,,,,,,,,,,,,,,,,,,,,-2.5238885407555998,,,,,,,,,,,,,,,,,,,,
7.839165000000001,160.25062561035156,6.002536363458899,0.1096066770252439,0.0,-4.4373040199279785,69.922,-1.2817698026646356,-8.96170425415039,30.166898727416992,207.42022705078125,-63.10595703125,69.922,0.0,,,,,,51.639667001588926,,,,,,,,,,,,,,,,,,,,,-2.5238935859733007,,,,,,,,,,,,,,,,,,,,
7.879450999999996,159.87628173828125,5.984908538013756,0.1064650843716541,0.0,-4.35503625869751,69.96228599999999,-1.2793263417118435,-9.525578498840332,30.119264602661133,208.61936950683594,-63.29386520385742,69.96228599999999,0.0,,,,,,51.63965622944648,,,,,,,,,,,,,,,,,,,,,-2.52389900511839,,,,,,,,,,,,,,,,,,,,
7.919528000000007,159.48269653320312,5.970247772297003,0.102799892942466,0.0,-4.1978278160095215,70.002363,-1.2788027429362452,-9.956011772155762,30.051549911499023,209.81663513183594,-63.475341796875,70.002363,0.0,,,,,,51.639645474163984,,,,,,,,,,,,,,,,,,,,,-2.5239047027765547,,,,,,,,,,,,,,,,,,,,
7.959511999999997,159.0707550048828,5.95261994685186,0.10070549784007281,0.0,-4.0939812660217285,70.04234699999999,-1.2774064795346498,-10.486149787902832,29.986543655395508,211.0117645263672,-63.65024948120117,70.04234699999999,0.0,,,,,,51.639634738071685,,,,,,,,,,,,,,,,,,,,,-2.523910666137054,,,,,,,,,,,,,,,,,,,,
8.00002,158.63644409179688,5.93743558235951,0.09965830028887622,0.0,-4.003800392150879,70.082855,-1.2767083478338521,-11.128591537475586,29.821643829345703,212.2025604248047,-63.82023239135742,70.082855,0.0,,,,,,51.639624040908075,,,,,,,,,,,,,,,,,,,,,-2.523916953287372,,,,,,,,,,,,,,,,,,,,
8.039250000000003,158.1733856201172,5.919982289839567,0.09965830028887622,0.0,-3.995205879211426,70.122085,-1.2789772758614446,-11.8905029296875,29.652889251708984,213.38687133789062,-63.98739242553711,70.122085,0.0,,,,,,51.639613402000414,,,,,,,,,,,,,,,,,,,,,-2.523923656549729,,,,,,,,,,,,,,,,,,,,
8.079434999999997,157.6796112060547,5.90654325459921,0.09808750396208132,0.0,-3.9198646545410156,70.16226999999999,-1.278628210011046,-12.507796287536621,29.470746994018555,214.5584259033203,-64.15711975097656,70.16226999999999,0.0,,,,,,51.63960287768564,,,,,,,,,,,,,,,,,,,,,-2.523930804413168,,,,,,,,,,,,,,,,,,,,
8.119535000000006,157.16220092773438,5.890660758406061,0.09756390518648302,0.0,-3.866644859313965,70.20237,-1.2812462038890373,-13.088785171508789,29.323841094970703,215.724365234375,-64.32290649414062,70.20237,0.0,,,,,,51.639592403813666,,,,,,,,,,,,,,,,,,,,,-2.5239382943972988,,,,,,,,,,,,,,,,,,,,
8.159253999999997,156.6253662109375,5.877919854866502,0.09669124056048586,0.0,-3.7745096683502197,70.24208899999999,-1.2842132636174277,-13.551414489746094,29.176029205322266,216.88502502441406,-64.48465728759766,70.24208899999999,0.0,,,,,,51.63958197736889,,,,,,,,,,,,,,,,,,,,,-2.5239460655421473,,,,,,,,,,,,,,,,,,,,
8.199659000000004,156.06979370117188,5.861513759897756,0.09721483933608416,0.0,-3.7562921047210693,70.282494,-1.2852604611686242,-14.025209426879883,29.041580200195312,218.040771484375,-64.64328002929688,70.282494,0.0,,,,,,51.63957159506157,,,,,,,,,,,,,,,,,,,,,-2.523954107908595,,,,,,,,,,,,,,,,,,,,
8.239218999999999,155.49681091308594,5.847900191732201,0.09773843811168245,0.0,-3.7331972122192383,70.322054,-1.2838641977670289,-14.489750862121582,28.87712860107422,219.19097900390625,-64.79969787597656,70.322054,0.0,,,,,,51.63956126251168,,,,,,,,,,,,,,,,,,,,,-2.523962402280584,,,,,,,,,,,,,,,,,,,,
8.279444000000005,154.89743041992188,5.831668629688653,0.09826203688728075,0.0,-3.73978328704834,70.362279,-1.2864821916450202,-14.937438011169434,28.71704864501953,220.3260955810547,-64.96086120605469,70.362279,0.0,,,,,,51.63955106552682,,,,,,,,,,,,,,,,,,,,,-2.5239710787456233,,,,,,,,,,,,,,,,,,,,
8.319539999999996,154.28318786621094,5.817705995672698,0.09686577348568529,0.0,-3.7529003620147705,70.40237499999999,-1.2875293891962167,-15.349640846252441,28.551025390625,221.4559326171875,-65.12081146240234,70.40237499999999,0.0,,,,,,51.63954091596916,,,,,,,,,,,,,,,,,,,,,-2.5239799703308754,,,,,,,,,,,,,,,,,,,,
8.359113,153.65245056152344,5.800601769003155,0.0947713783832921,0.0,-3.7402195930480957,70.441948,-1.2889256525978123,-15.771732330322266,28.394617080688477,222.5806884765625,-65.27981567382812,70.441948,0.0,,,,,,51.639530812056755,,,,,,,,,,,,,,,,,,,,,-2.523989100669293,,,,,,,,,,,,,,,,,,,,
8.399465,153.00662231445312,5.785417404510804,0.09093165402890457,0.0,-3.693121910095215,70.4823,-1.2929399098773993,-16.2037296295166,28.231481552124023,223.7000274658203,-65.43600463867188,70.4823,0.0,,,,,,51.6395207568052,,,,,,,,,,,,,,,,,,,,,-2.5239984494406547,,,,,,,,,,,,,,,,,,,,
8.439242999999998,152.34329223632812,5.76813864491606,0.08691739674931762,0.0,-3.662200689315796,70.522078,-1.2983504305585818,-16.652273178100586,28.039615631103516,224.81346130371094,-65.59024047851562,70.522078,0.0,,,,,,51.639510754600835,,,,,,,,,,,,,,,,,,,,,-2.5240080515419168,,,,,,,,,,,,,,,,,,,,
8.480021,151.66177368164062,5.7519070828725125,0.08237954069413235,0.0,-3.62204909324646,70.562856,-1.300793891511374,-17.136457443237305,27.84636878967285,225.91397094726562,-65.74847412109375,70.562856,0.0,,,,,,51.63950086849715,,,,,,,,,,,,,,,,,,,,,-2.524017916908992,,,,,,,,,,,,,,,,,,,,
8.520018,150.9632568359375,5.735850053754165,0.07853981633974483,0.0,-3.559786558151245,70.602853,-1.30498268171616,-17.500375747680664,27.684701919555664,227.00880432128906,-65.90365600585938,70.602853,0.0,,,,,,51.63949103338456,,,,,,,,,,,,,,,,,,,,,-2.5240280283171543,,,,,,,,,,,,,,,,,,,,
8.559515999999995,150.2515411376953,5.7199675575610165,0.07504915783575616,0.0,-3.5065808296203613,70.64235099999999,-1.3053317475665591,-17.897432327270508,27.52208137512207,228.0986785888672,-66.05475616455078,70.64235099999999,0.0,,,,,,51.639481242820644,,,,,,,,,,,,,,,,,,,,,-2.5240383307702667,,,,,,,,,,,,,,,,,,,,
8.599666000000006,149.52389526367188,5.703735995517469,0.07103490055616922,0.0,-3.4434804916381836,70.682501,-1.3062044121925562,-18.287681579589844,27.31560516357422,229.1822509765625,-66.20254516601562,70.682501,0.0,,,,,,51.6394715088678,,,,,,,,,,,,,,,,,,,,,-2.524048863803159,,,,,,,,,,,,,,,,,,,,
8.639269000000006,148.78060913085938,5.686980834698323,0.06736970912698112,0.0,-3.385254144668579,70.722104,-1.3070770768185533,-18.746431350708008,27.109371185302734,230.2588348388672,-66.34646606445312,70.722104,0.0,,,,,,51.63946183769432,,,,,,,,,,,,,,,,,,,,,-2.5240596232189247,,,,,,,,,,,,,,,,,,,,
8.679441000000004,148.01922607421875,5.671447404355574,0.0635299847725936,0.0,-3.305513381958008,70.762276,-1.3062044121925562,-19.13947296142578,26.8798828125,231.32379150390625,-66.49331665039062,70.762276,0.0,,,,,,51.63945227097033,,,,,,,,,,,,,,,,,,,,,-2.5240706445753416,,,,,,,,,,,,,,,,,,,,
8.719681999999999,147.24156188964844,5.6539941118356305,0.06091199089460211,0.0,-3.264554500579834,70.802517,-1.3014920232121714,-19.608919143676758,26.648563385009766,232.38082885742188,-66.63606262207031,70.802517,0.0,,,,,,51.63944277538714,,,,,,,,,,,,,,,,,,,,,-2.5240819015905256,,,,,,,,,,,,,,,,,,,,
8.759161999999996,146.4472198486328,5.639333346118878,0.0582939970166106,0.0,-3.2034380435943604,70.84199699999999,-1.2943361732789946,-19.99648094177246,26.41149139404297,233.42979431152344,-66.77545928955078,70.84199699999999,0.0,,,,,,51.63943335231548,,,,,,,,,,,,,,,,,,,,,-2.5240934000068997,,,,,,,,,,,,,,,,,,,,
8.799459000000006,145.63726806640625,5.622578185299732,0.056025068989017976,0.0,-3.1477646827697754,70.882294,-1.2875293891962167,-20.4050350189209,26.20703125,234.4708709716797,-66.91139221191406,70.882294,0.0,,,,,,51.639424000110466,,,,,,,,,,,,,,,,,,,,,-2.5241051243636514,,,,,,,,,,,,,,,,,,,,
8.839467000000006,144.81414794921875,5.6087900842089775,0.052185344634630454,0.0,-3.0197396278381348,70.922302,-1.2791518087866443,-20.691883087158203,26.033302307128906,235.505615234375,-67.04251861572266,70.922302,0.0,,,,,,51.63941470479068,,,,,,,,,,,,,,,,,,,,,-2.5241170393223933,,,,,,,,,,,,,,,,,,,,
8.879444,143.97825622558594,5.591336791689034,0.049567350756638956,0.0,-2.9168059825897217,70.962279,-1.272170491778667,-21.07841682434082,25.8320369720459,236.5284423828125,-67.17499542236328,70.962279,0.0,,,,,,51.639405516524775,,,,,,,,,,,,,,,,,,,,,-2.5241291391381693,,,,,,,,,,,,,,,,,,,,
8.919519000000001,143.1288604736328,5.57719962474788,0.046774823953448036,0.0,-2.8019614219665527,71.002354,-1.2709487613022707,-21.386186599731445,25.62448501586914,237.54437255859375,-67.30154418945312,71.002354,0.0,,,,,,51.639396390215786,,,,,,,,,,,,,,,,,,,,,-2.5241414344146933,,,,,,,,,,,,,,,,,,,,
8.959520000000005,142.26608276367188,5.559920865153137,0.04520402762665313,0.0,-2.7322654724121094,71.042355,-1.2690288991250769,-21.753822326660156,25.413402557373047,238.55323791503906,-67.423095703125,71.042355,0.0,,,,,,51.639387327371516,,,,,,,,,,,,,,,,,,,,,-2.5241539233848833,,,,,,,,,,,,,,,,,,,,
8.999944000000006,141.39053344726562,5.545958231137181,0.04258603374866164,0.0,-2.621128559112549,71.082779,-1.2648401089202905,-22.061817169189453,25.188547134399414,239.55447387695312,-67.53976440429688,71.082779,0.0,,,,,,51.63937833306367,,,,,,,,,,,,,,,,,,,,,-2.5241665972137164,,,,,,,,,,,,,,,,,,,,
9.039474000000006,140.50111389160156,5.528330405692039,0.041189770347066175,0.0,-2.557509422302246,71.122309,-1.2604767857903048,-22.429841995239258,24.952720642089844,240.54757690429688,-67.65200805664062,71.122309,0.0,,,,,,51.63936941181563,,,,,,,,,,,,,,,,,,,,,-2.524179471803448,,,,,,,,,,,,,,,,,,,,
9.079501,139.6007537841797,5.514367771676084,0.03892084231947355,0.0,-2.455446243286133,71.162336,-1.2557643968099201,-22.745716094970703,24.705846786499023,241.5302276611328,-67.76739501953125,71.162336,0.0,,,,,,51.63936058446249,,,,,,,,,,,,,,,,,,,,,-2.5241925047464058,,,,,,,,,,,,,,,,,,,,
9.119608000000007,138.6858367919922,5.496914479156141,0.03752457891787808,0.0,-2.4014689922332764,71.202443,-1.2519246724555326,-23.124147415161133,24.430700302124023,242.50340270996094,-67.87806701660156,71.202443,0.0,,,,,,51.63935184223157,,,,,,,,,,,,,,,,,,,,,-2.524205748388712,,,,,,,,,,,,,,,,,,,,
9.159281,137.75767517089844,5.482951845140186,0.03560471674068432,0.0,-2.3147196769714355,71.242116,-1.2466886846995497,-23.447065353393555,24.176422119140625,243.46702575683594,-67.98440551757812,71.242116,0.0,,,,,,51.63934318580824,,,,,,,,,,,,,,,,,,,,,-2.5242191837356343,,,,,,,,,,,,,,,,,,,,
9.199924000000003,136.81491088867188,5.466022151395841,0.034557519189487726,0.0,-2.291424512863159,71.282759,-1.242325361569564,-23.818532943725586,23.872413635253906,244.42031860351562,-68.08740234375,71.282759,0.0,,,,,,51.63933462218321,,,,,,,,,,,,,,,,,,,,,-2.524232830444089,,,,,,,,,,,,,,,,,,,,
9.239278000000006,135.85804748535156,5.451535918604288,0.03298672286269283,0.0,-2.2456512451171875,71.322113,-1.2376129725891791,-24.194501876831055,23.558887481689453,245.36215209960938,-68.18757629394531,71.322113,0.0,,,,,,51.63932616149989,,,,,,,,,,,,,,,,,,,,,-2.5242466812249567,,,,,,,,,,,,,,,,,,,,
9.279500000000006,134.86170959472656,5.434257159009545,0.031241393610698498,0.0,-2.2127041816711426,71.362335,-1.2365657750379824,-24.597980499267578,23.211078643798828,246.3114471435547,-68.2924575805664,71.362335,0.0,,,,,,51.63931763378795,,,,,,,,,,,,,,,,,,,,,-2.5242611033889495,,,,,,,,,,,,,,,,,,,,
9.319618999999996,133.87489318847656,5.4195963932927915,0.028274333882308142,0.0,-2.1689140796661377,71.40245399999999,-1.2374384396639797,-24.967105865478516,22.85786247253418,247.224609375,-68.39167785644531,71.40245399999999,0.0,,,,,,51.63930943066447,,,,,,,,,,,,,,,,,,,,,-2.524275387712068,,,,,,,,,,,,,,,,,,,,
9.359068,132.87132263183594,5.40179403492245,0.027227136331111543,0.0,-2.1699039936065674,71.441903,-1.237962038439578,-25.385101318359375,22.4619140625,248.12344360351562,-68.48899841308594,71.441903,0.0,,,,,,51.639301356252375,,,,,,,,,,,,,,,,,,,,,-2.52428991453749,,,,,,,,,,,,,,,,,,,,
9.399414,131.85299682617188,5.386784203355298,0.025656340004316644,0.0,-2.152287483215332,71.482249,-1.239183768915974,-25.740726470947266,22.112079620361328,249.00839233398438,-68.5846939086914,71.482249,0.0,,,,,,51.639293406576556,,,,,,,,,,,,,,,,,,,,,-2.52430465493169,,,,,,,,,,,,,,,,,,,,
9.439446999999994,130.8194580078125,5.368807312059757,0.023911010752322315,0.0,-2.126335382461548,71.52228199999999,-1.2398819006167718,-26.094554901123047,21.754667282104492,249.87974548339844,-68.67855834960938,71.52228199999999,0.0,,,,,,51.639285579032624,,,,,,,,,,,,,,,,,,,,,-2.52431961552082,,,,,,,,,,,,,,,,,,,,
9.479987000000001,129.7735137939453,5.35257575001621,0.021467549799530253,0.0,-2.0560967922210693,71.562822,-1.2372639067387803,-26.41538429260254,21.42659568786621,250.73387145996094,-68.77120208740234,71.562822,0.0,,,,,,51.639277906243926,,,,,,,,,,,,,,,,,,,,,-2.5243347556638667,,,,,,,,,,,,,,,,,,,,
9.520057999999999,128.7147216796875,5.334424325795468,0.01972222054753592,0.0,-1.9792803525924683,71.602893,-1.2348204457859882,-26.687353134155273,21.122940063476562,251.57618713378906,-68.86026000976562,71.602893,0.0,,,,,,51.63927033954959,,,,,,,,,,,,,,,,,,,,,-2.5243500817680578,,,,,,,,,,,,,,,,,,,,
9.559890000000003,127.64497375488281,5.316796500350326,0.017976891295541596,0.0,-1.892949104309082,71.642725,-1.233947781159991,-26.99742889404297,20.79043960571289,252.40708923339844,-68.94440460205078,71.642725,0.0,,,,,,51.63926287538573,,,,,,,,,,,,,,,,,,,,,-2.5243655664459586,,,,,,,,,,,,,,,,,,,,
9.599472999999996,126.562255859375,5.298819609054785,0.01658062789394613,0.0,-1.8288354873657227,71.68230799999999,-1.233947781159991,-27.294849395751953,20.426607131958008,253.2248077392578,-69.02481842041016,71.68230799999999,0.0,,,,,,51.6392555296528,,,,,,,,,,,,,,,,,,,,,-2.5243812388514844,,,,,,,,,,,,,,,,,,,,
9.639221,125.46672058105469,5.279970053133246,0.016231562043547264,0.0,-1.7912846803665161,71.722056,-1.2313297872819995,-27.664960861206055,19.989286422729492,254.0275115966797,-69.10224914550781,71.722056,0.0,,,,,,51.63924831879953,,,,,,,,,,,,,,,,,,,,,-2.5243970967753318,,,,,,,,,,,,,,,,,,,,
9.679454999999997,124.3574447631836,5.2619931618377045,0.015707963267948967,0.0,-1.7816894054412842,71.76229,-1.2278391287780108,-27.98700714111328,19.537076950073242,254.80657958984375,-69.17731475830078,71.76229,0.0,,,,,,51.63924132027208,,,,,,,,,,,,,,,,,,,,,-2.5244131535769685,,,,,,,,,,,,,,,,,,,,
9.719607000000003,123.23399353027344,5.243841737616963,0.0158824961931484,0.0,-1.7766424417495728,71.802442,-1.229060859254407,-28.37957191467285,19.04981803894043,255.5681915283203,-69.25117492675781,71.802442,0.0,,,,,,51.63923447855594,,,,,,,,,,,,,,,,,,,,,-2.5244294155534366,,,,,,,,,,,,,,,,,,,,
9.759080000000004,122.0963363647461,5.228308307274213,0.014486232791552934,0.0,-1.7798454761505127,71.841915,-1.236042176262384,-28.664949417114258,18.625446319580078,256.3125305175781,-69.32484436035156,71.841915,0.0,,,,,,51.639227792006245,,,,,,,,,,,,,,,,,,,,,-2.524445883146612,,,,,,,,,,,,,,,,,,,,
9.799352000000006,120.94633483886719,5.21085501475427,0.013439035240356337,0.0,-1.8138734102249146,71.882187,-1.2404054993923699,-29.001468658447266,18.181625366210938,257.0405578613281,-69.39862060546875,71.882187,0.0,,,,,,51.6392212519874,,,,,,,,,,,,,,,,,,,,,-2.524462529411072,,,,,,,,,,,,,,,,,,,,
9.839211999999996,119.78433990478516,5.195321584411521,0.011344640137963142,0.0,-1.806746244430542,71.92204699999999,-1.241976295719165,-29.251134872436523,17.776952743530273,257.7525939941406,-69.47241973876953,71.92204699999999,0.0,,,,,,51.639214855620885,,,,,,,,,,,,,,,,,,,,,-2.5244793492670587,,,,,,,,,,,,,,,,,,,,
9.879355999999994,118.61046600341797,5.17717016019078,0.00942477796076938,0.0,-1.8080410957336426,71.96219099999999,-1.2421508286443643,-29.5682373046875,17.321739196777344,258.4407043457031,-69.54149627685547,71.96219099999999,0.0,,,,,,51.639208674184566,,,,,,,,,,,,,,,,,,,,,-2.5244963410554555,,,,,,,,,,,,,,,,,,,,
9.919552000000003,117.42522430419922,5.161636729848031,0.006806784082777886,0.0,-1.788873314857483,72.002387,-1.2405800323175693,-29.821025848388672,16.877111434936523,259.1124267578125,-69.61044311523438,72.002387,0.0,,,,,,51.639202639964466,,,,,,,,,,,,,,,,,,,,,-2.5245134973799126,,,,,,,,,,,,,,,,,,,,
9.959621000000006,116.22806549072266,5.1429617068516915,0.00471238898038469,0.0,-1.7900561094284058,72.042456,-1.2405800323175693,-30.140094757080078,16.39607048034668,259.7667236328125,-69.67903137207031,72.042456,0.0,,,,,,51.63919676228154,,,,,,,,,,,,,,,,,,,,,-2.5245308261914117,,,,,,,,,,,,,,,,,,,,
9.999975999999997,115.0194091796875,5.12777734235934,0.0012217304763960308,0.0,-1.7774420976638794,72.08281099999999,-1.240754565242769,-30.419349670410156,15.892290115356445,260.4029846191406,-69.74735260009766,72.08281099999999,0.0,,,,,,51.6391910466187,,,,,,,,,,,,,,,,,,,,,-2.5245483214160114,,,,,,,,,,,,,,,,,,,,
10.039275999999994,113.79759216308594,5.1094513852134,-0.0012217304763960308,0.0,-1.7941646575927734,72.12211099999999,-1.2374384396639797,-30.761865615844727,15.336036682128906,261.01849365234375,-69.81593322753906,72.12211099999999,0.0,,,,,,51.6391855173749,,,,,,,,,,,,,,,,,,,,,-2.5245660071274876,,,,,,,,,,,,,,,,,,,,
10.079443000000005,112.56378936767578,5.095488751197445,-0.004886921905584123,0.0,-1.7445666790008545,72.162278,-1.2346459128607887,-31.028953552246094,14.848733901977539,261.6051940917969,-69.8796615600586,72.162278,0.0,,,,,,51.63918024692461,,,,,,,,,,,,,,,,,,,,,-2.5245838663166076,,,,,,,,,,,,,,,,,,,,
10.119504999999997,111.31893157958984,5.079257189153897,-0.008552113334772215,0.0,-1.6889586448669434,72.20233999999999,-1.235518577486786,-31.277921676635742,14.434144020080566,262.17529296875,-69.94181823730469,72.20233999999999,0.0,,,,,,51.639175125609555,,,,,,,,,,,,,,,,,,,,,-2.5246018855146093,,,,,,,,,,,,,,,,,,,,
10.159062999999996,110.06587982177734,5.065643620988342,-0.012566370614359171,0.0,-1.5878270864486694,72.24189799999999,-1.2329005836087945,-31.47640609741211,14.070168495178223,262.7320251464844,-70.00138092041016,72.24189799999999,0.0,,,,,,51.639170124370295,,,,,,,,,,,,,,,,,,,,,-2.52462002331003,,,,,,,,,,,,,,,,,,,,
10.199866000000007,108.80429077148438,5.049412058944795,-0.015707963267948967,0.0,-1.5015594959259033,72.282701,-1.231504320207199,-31.66463279724121,13.749637603759766,263.2760009765625,-70.05780792236328,72.282701,0.0,,,,,,51.63916523772392,,,,,,,,,,,,,,,,,,,,,-2.524638284672677,,,,,,,,,,,,,,,,,,,,
10.239259999999994,107.53633880615234,5.034751293228043,-0.01937315469713706,0.0,-1.383113145828247,72.32209499999999,-1.2285372604788085,-31.83243751525879,13.469640731811523,263.8097839355469,-70.11022186279297,72.32209499999999,0.0,,,,,,51.6391604426422,,,,,,,,,,,,,,,,,,,,,-2.5246566381298647,,,,,,,,,,,,,,,,,,,,
10.279457,106.2608642578125,5.018519731184496,-0.023736477827122883,0.0,-1.2390142679214478,72.362292,-1.2264428653764152,-31.98423957824707,13.17813491821289,264.3239440917969,-70.1555404663086,72.362292,0.0,,,,,,51.63915582383614,,,,,,,,,,,,,,,,,,,,,-2.5246751004647066,,,,,,,,,,,,,,,,,,,,
10.319496000000008,104.97893524169922,5.002288169140948,-0.027925268031909273,0.0,-1.1338551044464111,72.402331,-1.2253956678252187,-32.19209289550781,12.790825843811035,264.82684326171875,-70.1958999633789,72.402331,0.0,,,,,,51.639151306189824,,,,,,,,,,,,,,,,,,,,,-2.5246936562192013,,,,,,,,,,,,,,,,,,,,
10.359108999999997,103.68842315673828,4.985707541247002,-0.03159045946109736,0.0,-1.03354012966156,72.44194399999999,-1.2253956678252187,-32.381561279296875,12.349517822265625,265.3147888183594,-70.23277282714844,72.44194399999999,0.0,,,,,,51.639146922874886,,,,,,,,,,,,,,,,,,,,,-2.524712336203311,,,,,,,,,,,,,,,,,,,,
10.399482999999996,102.39020538330078,4.969475979203454,-0.035430183815484885,0.0,-0.9454752206802368,72.48231799999999,-1.224697536124421,-32.60198974609375,11.899866104125977,265.7867431640625,-70.26649475097656,72.48231799999999,0.0,,,,,,51.63914268321227,,,,,,,,,,,,,,,,,,,,,-2.5247311277170033,,,,,,,,,,,,,,,,,,,,
10.439163999999998,101.08434295654297,4.954117081785904,-0.041015237421866746,0.0,-0.8045184016227722,72.521999,-1.2250466019748198,-32.74445343017578,11.514153480529785,266.2432861328125,-70.29605102539062,72.521999,0.0,,,,,,51.63913858199321,,,,,,,,,,,,,,,,,,,,,-2.524750029877125,,,,,,,,,,,,,,,,,,,,
10.479987999999999,99.77122497558594,4.9375364538919575,-0.046251225177849735,0.0,-0.6645960211753845,72.562823,-1.2269664641520137,-32.93857192993164,11.063309669494629,266.6814880371094,-70.31380462646484,72.562823,0.0,,,,,,51.63913464553569,,,,,,,,,,,,,,,,,,,,,-2.52476903705087,,,,,,,,,,,,,,,,,,,,
10.520012999999999,98.45108032226562,4.92165395769881,-0.052185344634630454,0.0,-0.5095558762550354,72.602848,-1.2318533860575978,-33.080116271972656,10.627119064331055,267.1033630371094,-70.32669830322266,72.602848,0.0,,,,,,51.6391308557461,,,,,,,,,,,,,,,,,,,,,-2.524788145925982,,,,,,,,,,,,,,,,,,,,
10.559628999999994,97.12456512451172,4.904549731029265,-0.05707226654021458,0.0,-0.38406816124916077,72.64246399999999,-1.2381365713647774,-33.27284240722656,10.138056755065918,267.50823974609375,-70.33491516113281,72.64246399999999,0.0,,,,,,51.639127218655645,,,,,,,,,,,,,,,,,,,,,-2.5248073470051513,,,,,,,,,,,,,,,,,,,,
10.599869000000005,95.79145050048828,4.889714432387314,-0.06265732014659643,0.0,-0.24516159296035767,72.682704,-1.245641487148353,-33.40492248535156,9.704721450805664,267.8956604003906,-70.33848571777344,72.682704,0.0,,,,,,51.639123738376504,,,,,,,,,,,,,,,,,,,,,-2.524826643601429,,,,,,,,,,,,,,,,,,,,
10.639332000000003,94.45211029052734,4.872784738642968,-0.06736970912698112,0.0,-0.13518448173999786,72.722167,-1.2520992053807318,-33.594871520996094,9.194671630859375,268.2656555175781,-70.33768463134766,72.722167,0.0,,,,,,51.63912041463453,,,,,,,,,,,,,,,,,,,,,-2.52484603030376,,,,,,,,,,,,,,,,,,,,
10.679488,93.10501861572266,4.857600374150618,-0.07330382858376185,0.0,-0.006306231487542391,72.762323,-1.2573351931367152,-33.721435546875,8.69948959350586,268.6108093261719,-70.32440948486328,72.762323,0.0,,,,,,51.639117314047134,,,,,,,,,,,,,,,,,,,,,-2.5248655291970445,,,,,,,,,,,,,,,,,,,,
10.719693,91.75189208984375,4.839623482855076,-0.0783652834145454,0.0,0.12171870470046997,72.802528,-1.2582078577627123,-33.9018440246582,8.162704467773438,268.9367980957031,-70.30758666992188,72.802528,0.0,,,,,,51.6391143856232,,,,,,,,,,,,,,,,,,,,,-2.524885115435506,,,,,,,,,,,,,,,,,,,,
10.759119000000005,90.39342498779297,4.824613651287925,-0.08464846872172498,0.0,0.302543044090271,72.841954,-1.2564625285107178,-33.99732971191406,7.726426124572754,269.2447814941406,-70.2860107421875,72.841954,0.0,,,,,,51.639111618945215,,,,,,,,,,,,,,,,,,,,,-2.5249047789702046,,,,,,,,,,,,,,,,,,,,
10.799426000000004,89.03023529052734,4.806287694141985,-0.08918632477691024,0.0,0.46716105937957764,72.882261,-1.2557643968099201,-34.13819122314453,7.261727333068848,269.5361022949219,-70.2585220336914,72.882261,0.0,,,,,,51.63910900195075,,,,,,,,,,,,,,,,,,,,,-2.5249245108565685,,,,,,,,,,,,,,,,,,,,
10.839492999999997,87.66299438476562,4.790056132098437,-0.09337511498169662,0.0,0.6433272361755371,72.922328,-1.254891732183923,-34.21634292602539,6.806225776672363,269.8102722167969,-70.2253646850586,72.922328,0.0,,,,,,51.63910653902615,,,,,,,,,,,,,,,,,,,,,-2.524944301376514,,,,,,,,,,,,,,,,,,,,
10.879330000000003,86.29096221923828,4.770159378625702,-0.09599310885968812,0.0,0.7905665040016174,72.962165,-1.2543681334083248,-34.35230255126953,6.238338470458984,270.0565185546875,-70.17597961425781,72.962165,0.0,,,,,,51.63910432694483,,,,,,,,,,,,,,,,,,,,,-2.524964161239613,,,,,,,,,,,,,,,,,,,,
10.919498999999995,84.91513061523438,4.7534042178065565,-0.09913470151327791,0.0,0.9622824192047119,73.00233399999999,-1.254542666333524,-34.42499542236328,5.726694107055664,270.283203125,-70.12225341796875,73.00233399999999,0.0,,,,,,51.63910229059088,,,,,,,,,,,,,,,,,,,,,-2.5249840760918714,,,,,,,,,,,,,,,,,,,,
10.959621000000006,83.535400390625,4.733681997259021,-0.10088003076527226,0.0,1.102420687675476,73.042456,-1.254891732183923,-34.539302825927734,5.148299694061279,270.4892578125,-70.06420135498047,73.042456,0.0,,,,,,51.639100439559385,,,,,,,,,,,,,,,,,,,,,-2.525004047368893,,,,,,,,,,,,,,,,,,,,
10.999952,82.1526107788086,4.717450435215474,-0.10297442586766545,0.0,1.255473256111145,73.082787,-1.2564625285107178,-34.59931945800781,4.634566307067871,270.6752014160156,-70.00188446044922,73.082787,0.0,,,,,,51.639098769189886,,,,,,,,,,,,,,,,,,,,,-2.5250240629233582,,,,,,,,,,,,,,,,,,,,
11.039164000000007,80.76663208007812,4.697553681742738,-0.10437068926926091,0.0,1.3826040029525757,73.121999,-1.2580333248375126,-34.686519622802734,4.051501274108887,270.84002685546875,-69.93553924560547,73.121999,0.0,,,,,,51.63909728852918,,,,,,,,,,,,,,,,,,,,,-2.5250441246326374,,,,,,,,,,,,,,,,,,,,
11.079444000000002,79.37858581542969,4.680973053848792,-0.10611601852125524,0.0,1.5033271312713623,73.162279,-1.2589059894635097,-34.72843551635742,3.5360565185546875,270.9766540527344,-69.85420227050781,73.162279,0.0,,,,,,51.63909606117907,,,,,,,,,,,,,,,,,,,,,-2.5250642162616503,,,,,,,,,,,,,,,,,,,,
11.119604000000002,77.9534912109375,4.660203635750059,-0.1059414855960558,0.0,1.6181981563568115,73.202439,-1.2559389297351193,-34.78654098510742,2.9980733394622803,271.0964660644531,-69.76927185058594,73.202439,0.0,,,,,,51.63909498488321,,,,,,,,,,,,,,,,,,,,,-2.5250848441505847,,,,,,,,,,,,,,,,,,,,
11.159258999999999,76.56234741210938,4.643273942005715,-0.10716321607245183,0.0,1.7376532554626465,73.242094,-1.2536700017075268,-34.784278869628906,2.5734617710113525,271.19622802734375,-69.68290710449219,73.242094,0.0,,,,,,51.63909408870105,,,,,,,,,,,,,,,,,,,,,-2.525104980605356,,,,,,,,,,,,,,,,,,,,
11.199886,75.17030334472656,4.621631859280985,-0.1059414855960558,0.0,1.8581098318099976,73.282721,-1.250877474904336,-34.82252883911133,2.03014874458313,271.2778625488281,-69.59375762939453,73.282721,0.0,,,,,,51.63909335536141,,,,,,,,,,,,,,,,,,,,,-2.5251251300865687,,,,,,,,,,,,,,,,,,,,
11.239121000000004,73.77820587158203,4.603829500910642,-0.10559241974565693,0.0,1.9437037706375122,73.321956,-1.2540190675579257,-34.80223846435547,1.507846713066101,271.33984375,-69.50209045410156,73.321956,0.0,,,,,,51.639092798571575,,,,,,,,,,,,,,,,,,,,,-2.5251452803360066,,,,,,,,,,,,,,,,,,,,
11.279331000000006,72.38553619384766,4.582711016961511,-0.1033234917180643,0.0,1.97035551071167,73.362166,-1.256811594361117,-34.812164306640625,0.8540076613426208,271.37127685546875,-69.39866638183594,73.362166,0.0,,,,,,51.63909251620155,,,,,,,,,,,,,,,,,,,,,-2.5251654388611167,,,,,,,,,,,,,,,,,,,,
11.319409,70.99370574951172,4.565432257366767,-0.10140362954087054,0.0,2.0026018619537354,73.402244,-1.2547171992587236,-34.7745361328125,0.2806733548641205,271.3805236816406,-69.29690551757812,73.402244,0.0,,,,,,51.63909243313542,,,,,,,,,,,,,,,,,,,,,-2.5251855852337823,,,,,,,,,,,,,,,,,,,,
11.359123000000004,69.60285949707031,4.545360970968833,-0.09843656981248018,0.0,2.0133590698242188,73.441958,-1.2512265407547347,-34.75545120239258,-0.32334503531455994,271.3671569824219,-69.19660186767578,73.441958,0.0,,,,,,51.63909255321121,,,,,,,,,,,,,,,,,,,,,-2.525205717355948,,,,,,,,,,,,,,,,,,,,
11.399477999999995,68.21381378173828,4.528780343074887,-0.09773843811168245,0.0,2.0778450965881348,73.48231299999999,-1.2487830798019428,-34.70351028442383,-0.7925314903259277,271.3345642089844,-69.09664154052734,73.48231299999999,0.0,,,,,,51.639092845998775,,,,,,,,,,,,,,,,,,,,,-2.5252258234121703,,,,,,,,,,,,,,,,,,,,
11.439253999999998,66.82669067382812,4.508185457901353,-0.09704030641088472,0.0,2.138962507247925,73.522089,-1.2470377505499486,-34.64726257324219,-1.3524837493896484,271.28216552734375,-68.9961166381836,73.522089,0.0,,,,,,51.63909331670688,,,,,,,,,,,,,,,,,,,,,-2.5252459016356323,,,,,,,,,,,,,,,,,,,,
11.479998000000002,65.44658660888672,4.490383099531011,-0.09651670763528643,0.0,2.21852445602417,73.562833,-1.2461650859239515,-34.552398681640625,-1.9344463348388672,271.2025451660156,-68.88874053955078,73.562833,0.0,,,,,,51.6390940319529,,,,,,,,,,,,,,,,,,,,,-2.5252658782556434,,,,,,,,,,,,,,,,,,,,
11.520068000000002,64.06983947753906,4.469788214357479,-0.0947713783832921,0.0,2.233915328979492,73.602903,-1.2489576127271422,-34.44497299194336,-2.638254404067993,271.0982666015625,-68.78165435791016,73.602903,0.0,,,,,,51.63909496870861,,,,,,,,,,,,,,,,,,,,,-2.5252858062810426,,,,,,,,,,,,,,,,,,,,
11.559851000000002,62.69804000854492,4.452509454762734,-0.09285151620609834,0.0,2.248326063156128,73.642686,-1.2522737383059315,-34.31572341918945,-3.324965715408325,270.96832275390625,-68.67569732666016,73.642686,0.0,,,,,,51.63909613602083,,,,,,,,,,,,,,,,,,,,,-2.525305662686566,,,,,,,,,,,,,,,,,,,,
11.599498000000004,61.33089065551758,4.433834431766394,-0.09005898940290741,0.0,2.265241861343384,73.682333,-1.2550662651091222,-34.18466567993164,-4.039000034332275,270.8110046386719,-68.57125854492188,73.682333,0.0,,,,,,51.639097549241704,,,,,,,,,,,,,,,,,,,,,-2.5253254517791146,,,,,,,,,,,,,,,,,,,,
11.639220000000002,59.969520568847656,4.418475534348844,-0.08848819307611251,0.0,2.252140998840332,73.722055,-1.262222115042299,-34.031517028808594,-4.738521575927734,270.62774658203125,-68.46803283691406,73.722055,0.0,,,,,,51.63909919548639,,,,,,,,,,,,,,,,,,,,,-2.5253451572151007,,,,,,,,,,,,,,,,,,,,
11.679358,58.61669921875,4.4013713076793,-0.08639379797371932,0.0,2.2227232456207275,73.762193,-1.2655382406210884,-33.858306884765625,-5.51391077041626,270.4073181152344,-68.35702514648438,73.762193,0.0,,,,,,51.63910117564048,,,,,,,,,,,,,,,,,,,,,-2.5253647389055875,,,,,,,,,,,,,,,,,,,,
11.719615999999995,57.27069854736328,4.387932272438944,-0.08395033702092725,0.0,2.157681941986084,73.80245099999999,-1.2688543661998777,-33.690391540527344,-6.229214668273926,270.1595764160156,-68.25008392333984,73.80245099999999,0.0,,,,,,51.63910340115494,,,,,,,,,,,,,,,,,,,,,-2.525384221865789,,,,,,,,,,,,,,,,,,,,
11.759120000000003,55.93067932128906,4.372922440871793,-0.08150687606813518,0.0,2.067206382751465,73.841955,-1.2674581027982823,-33.52384948730469,-6.897953033447266,269.8849792480469,-68.14867401123047,73.841955,0.0,,,,,,51.63910586791758,,,,,,,,,,,,,,,,,,,,,-2.5254036182437614,,,,,,,,,,,,,,,,,,,,
11.799500000000002,54.5971794128418,4.358959806855838,-0.08080874436733745,0.0,1.997481346130371,73.882335,-1.2629202467430969,-33.364662170410156,-7.543369770050049,269.5862731933594,-68.05220031738281,73.882335,0.0,,,,,,51.63910855125529,,,,,,,,,,,,,,,,,,,,,-2.52542292025467,,,,,,,,,,,,,,,,,,,,
11.839264000000007,53.269325256347656,4.344822639914684,-0.08115781021773633,0.0,1.9712620973587036,73.922099,-1.2503538761287376,-33.213443756103516,-8.05809211730957,269.2650146484375,-67.95966339111328,73.922099,0.0,,,,,,51.63911143718664,,,,,,,,,,,,,,,,,,,,,-2.525442140543646,,,,,,,,,,,,,,,,,,,,
11.879477999999999,51.95058822631836,4.331732670524726,-0.08150687606813518,0.0,2.00569224357605,73.962313,-1.2358676433371847,-33.09511184692383,-8.50438117980957,268.91497802734375,-67.85909271240234,73.962313,0.0,,,,,,51.63911458163735,,,,,,,,,,,,,,,,,,,,,-2.525461228862768,,,,,,,,,,,,,,,,,,,,
11.919605999999995,50.6358757019043,4.319515365760767,-0.0825540736193318,0.0,2.055506944656372,74.00244099999999,-1.229060859254407,-32.971065521240234,-8.82949161529541,268.55126953125,-67.75912475585938,74.00244099999999,0.0,,,,,,51.639117848905315,,,,,,,,,,,,,,,,,,,,,-2.525480258928885,,,,,,,,,,,,,,,,,,,,
11.959651999999998,49.32497024536133,4.30607633052041,-0.08307767239493008,0.0,2.0999464988708496,74.042487,-1.2201596800692358,-32.87895202636719,-9.168107032775879,268.1770324707031,-67.65904998779297,74.042487,0.0,,,,,,51.63912121075353,,,,,,,,,,,,,,,,,,,,,-2.525499233889938,,,,,,,,,,,,,,,,,,,,
11.999963000000001,48.017608642578125,4.293509959906051,-0.08464846872172498,0.0,2.1895806789398193,74.082798,-1.211433033809264,-32.76099395751953,-9.443349838256836,267.7920227050781,-67.5581283569336,74.082798,0.0,,,,,,51.639124669375164,,,,,,,,,,,,,,,,,,,,,-2.5255181575559567,,,,,,,,,,,,,,,,,,,,
12.039274999999996,46.714561462402344,4.279547325890096,-0.08587019919812101,0.0,2.2415688037872314,74.12210999999999,-1.2074187765296773,-32.64599609375,-9.850683212280273,267.3951721191406,-67.45569610595703,74.12210999999999,0.0,,,,,,51.63912823436531,,,,,,,,,,,,,,,,,,,,,-2.5255370187731216,,,,,,,,,,,,,,,,,,,,
12.079345999999994,45.417545318603516,4.2680281528269335,-0.08813912722571364,0.0,2.3074634075164795,74.16218099999999,-1.2072442436044777,-32.49992752075195,-10.1874361038208,266.97869873046875,-67.3484878540039,74.16218099999999,0.0,,,,,,51.63913197563112,,,,,,,,,,,,,,,,,,,,,-2.5255557926929937,,,,,,,,,,,,,,,,,,,,
12.119610000000002,44.12590789794922,4.254938183436976,-0.09058258817850572,0.0,2.335944652557373,74.202445,-1.209338638706871,-32.34962844848633,-10.671429634094238,266.5478820800781,-67.24077606201172,74.202445,0.0,,,,,,51.639135845745386,,,,,,,,,,,,,,,,,,,,,-2.5255744887585063,,,,,,,,,,,,,,,,,,,,
12.15923,42.84024429321289,4.245513405476206,-0.09389871375729493,0.0,2.3258447647094727,74.242065,-1.2091641057816715,-32.181819915771484,-11.086699485778809,266.1006164550781,-67.13451385498047,74.242065,0.0,,,,,,51.639139863624166,,,,,,,,,,,,,,,,,,,,,-2.525593098355723,,,,,,,,,,,,,,,,,,,,
12.199841999999997,41.56047058105469,4.235390495814639,-0.09546951008408983,0.0,2.28271222114563,74.28267699999999,-1.204451716801287,-32.03864288330078,-11.528172492980957,265.6374816894531,-67.03064727783203,74.28267699999999,0.0,,,,,,51.63914402405869,,,,,,,,,,,,,,,,,,,,,-2.525611622699641,,,,,,,,,,,,,,,,,,,,
12.239114000000008,40.28596878051758,4.228234645881463,-0.09808750396208132,0.0,2.1841161251068115,74.321949,-1.190489082785332,-31.886449813842773,-11.886560440063477,265.1605224609375,-66.93067932128906,74.321949,0.0,,,,,,51.63914830868119,,,,,,,,,,,,,,,,,,,,,-2.525630070735766,,,,,,,,,,,,,,,,,,,,
12.279491999999998,39.0161247253418,4.2168900057435,-0.09896016858807849,0.0,2.0082502365112305,74.362327,-1.137605606449904,-31.74053955078125,-12.30878734588623,264.6636962890625,-66.831298828125,74.362327,0.0,,,,,,51.639152771772515,,,,,,,,,,,,,,,,,,,,,-2.5256484513534567,,,,,,,,,,,,,,,,,,,,
12.319537000000004,37.751220703125,4.209385089959924,-0.10105456369047168,0.0,1.9978054761886597,74.402372,-1.0620328498385496,-31.622068405151367,-12.606151580810547,264.1549377441406,-66.73748016357422,74.402372,0.0,,,,,,51.6391573420548,,,,,,,,,,,,,,,,,,,,,-2.5256667604677245,,,,,,,,,,,,,,,,,,,,
12.359119999999997,36.490478515625,4.200658443699952,-0.102799892942466,0.0,1.9802477359771729,74.441955,-0.9829694347232064,-31.524709701538086,-12.914990425109863,263.63482666015625,-66.64583587646484,74.441955,0.0,,,,,,51.63916201431927,,,,,,,,,,,,,,,,,,,,,-2.5256850093429666,,,,,,,,,,,,,,,,,,,,
12.399526999999999,35.23329162597656,4.194898857168371,-0.10629055144645466,0.0,2.08096981048584,74.482362,-0.9185667853246157,-31.435359954833984,-13.151284217834473,263.1058654785156,-66.55370330810547,74.482362,0.0,,,,,,51.63916676608597,,,,,,,,,,,,,,,,,,,,,-2.525703206759012,,,,,,,,,,,,,,,,,,,,
12.439118999999998,33.97903060913086,4.187743007235194,-0.10925761117484503,0.0,2.1207823753356934,74.521954,-0.8712683625955694,-31.368627548217773,-13.351801872253418,262.5684509277344,-66.46039581298828,74.521954,0.0,,,,,,51.639171593791026,,,,,,,,,,,,,,,,,,,,,-2.525721361826753,,,,,,,,,,,,,,,,,,,,
12.479982,32.72716522216797,4.1821579536288125,-0.11292280260403312,0.0,2.193979501724243,74.562817,-0.8283332629965088,-31.310754776000977,-13.505704879760742,262.0228271484375,-66.36705017089844,74.562817,0.0,,,,,,51.639176495241266,,,,,,,,,,,,,,,,,,,,,-2.5257394822214274,,,,,,,,,,,,,,,,,,,,
12.520038000000007,31.477060317993164,4.1755257024712344,-0.1153662635568252,0.0,2.2669026851654053,74.602873,-0.7867944267990438,-31.271398544311523,-13.63803768157959,261.471923828125,-66.27249908447266,74.602873,0.0,,,,,,51.6391814441187,,,,,,,,,,,,,,,,,,,,,-2.5257575771369787,,,,,,,,,,,,,,,,,,,,
12.559977999999994,30.228321075439453,4.169940648864852,-0.11885692206081383,0.0,2.391908645629883,74.64281299999999,-0.7480481174047696,-31.237720489501953,-13.737959861755371,260.9184265136719,-66.17406463623047,74.64281299999999,0.0,,,,,,51.639186416298514,,,,,,,,,,,,,,,,,,,,,-2.525775652288629,,,,,,,,,,,,,,,,,,,,
12.599476000000003,28.98029136657715,4.164181062333271,-0.12147491593880534,0.0,2.519869327545166,74.682311,-0.7099999397112933,-31.223262786865234,-13.806716918945312,260.3620300292969,-66.0721435546875,74.682311,0.0,,,,,,51.63919141452217,,,,,,,,,,,,,,,,,,,,,-2.525793717173671,,,,,,,,,,,,,,,,,,,,
12.639250999999994,27.732826232910156,4.158770541652088,-0.12426744274199626,0.0,2.644653558731079,74.72208599999999,-0.6747442888210078,-31.20621109008789,-13.902521133422852,259.803955078125,-65.96508026123047,74.72208599999999,0.0,,,,,,51.63919642782383,,,,,,,,,,,,,,,,,,,,,-2.5258117738904686,,,,,,,,,,,,,,,,,,,,
12.679443,26.484798431396484,4.152836422195308,-0.1270599695451872,0.0,2.785367727279663,74.762278,-0.6403613025567195,-31.18382453918457,-13.978354454040527,259.24029541015625,-65.8487319946289,74.762278,0.0,,,,,,51.63920149129416,,,,,,,,,,,,,,,,,,,,,-2.52582983875532,,,,,,,,,,,,,,,,,,,,
12.719737000000002,25.238054275512695,4.146204171037729,-0.12950343049797924,0.0,2.850884437561035,74.802572,-0.6078981784696249,-31.157196044921875,-14.126415252685547,258.6734313964844,-65.72872161865234,74.802572,0.0,,,,,,51.63920658354977,,,,,,,,,,,,,,,,,,,,,-2.525847885043502,,,,,,,,,,,,,,,,,,,,
12.759270000000008,23.992244720458984,4.140095518655749,-0.1322959573011702,0.0,2.968315601348877,74.842105,-0.5754350543825304,-31.123750686645508,-14.224668502807617,258.10235595703125,-65.60662078857422,74.842105,0.0,,,,,,51.63921171363749,,,,,,,,,,,,,,,,,,,,,-2.525865917807317,,,,,,,,,,,,,,,,,,,,
12.799456,22.74787139892578,4.1336378004233705,-0.13473941825396224,0.0,3.0253210067749023,74.882291,-0.5476843192758206,-31.096267700195312,-14.382482528686523,257.527099609375,-65.48141479492188,74.882291,0.0,,,,,,51.63921688128316,,,,,,,,,,,,,,,,,,,,,-2.525883929785788,,,,,,,,,,,,,,,,,,,,
12.839216999999998,21.504657745361328,4.127878213891789,-0.13770647798235258,0.0,3.118619441986084,74.922052,-0.5227261109723017,-31.059532165527344,-14.471857070922852,256.94744873046875,-65.35450744628906,74.922052,0.0,,,,,,51.63922208840581,,,,,,,,,,,,,,,,,,,,,-2.525901924982164,,,,,,,,,,,,,,,,,,,,
12.879385000000006,20.259897232055664,4.121245962734211,-0.1392772743091475,0.0,3.137377977371216,74.96222,-0.4942772441647941,-31.03433609008789,-14.632195472717285,256.3628234863281,-65.22028350830078,74.96222,0.0,,,,,,51.6392273402142,,,,,,,,,,,,,,,,,,,,,-2.5259199425728283,,,,,,,,,,,,,,,,,,,,
12.919637999999999,19.016429901123047,4.116009974978228,-0.14241886696273728,0.0,3.2687790393829346,75.002473,-0.4623377188532979,-30.999399185180664,-14.726038932800293,255.77401733398438,-65.08428955078125,75.002473,0.0,,,,,,51.63923262958054,,,,,,,,,,,,,,,,,,,,,-2.525937941448914,,,,,,,,,,,,,,,,,,,,
12.959634999999999,17.744009017944336,4.110250388446646,-0.14381513036433277,0.0,3.2937097549438477,75.04247,-0.4316199240181977,-30.96182632446289,-14.893491744995117,255.16542053222656,-64.94288635253906,75.04247,0.0,,,,,,51.639238096730345,,,,,,,,,,,,,,,,,,,,,-2.5259563594244043,,,,,,,,,,,,,,,,,,,,
13.000004999999994,16.504308700561523,4.105887065316661,-0.14643312424232427,0.0,3.393523931503296,75.08283999999999,-0.4038691889114879,-30.918609619140625,-15.000102996826172,254.5667724609375,-64.80326080322266,75.08283999999999,0.0,,,,,,51.63924347450867,,,,,,,,,,,,,,,,,,,,,-2.525974303781853,,,,,,,,,,,,,,,,,,,,
13.039172,15.266403198242188,4.101000143411076,-0.14695672301792254,0.0,3.385540246963501,75.122007,-0.3790855135331684,-30.893943786621094,-15.132981300354004,253.96328735351562,-64.66315460205078,75.122007,0.0,,,,,,51.63924889573907,,,,,,,,,,,,,,,,,,,,,-2.525992222163792,,,,,,,,,,,,,,,,,,,,
13.079459000000007,14.02669620513916,4.097160419056689,-0.1492256510455152,0.0,3.441016912460327,75.162294,-0.3520329101272563,-30.867340087890625,-15.227669715881348,253.3572998046875,-64.5199203491211,75.162294,0.0,,,,,,51.63925433944942,,,,,,,,,,,,,,,,,,,,,-2.526010166626101,,,,,,,,,,,,,,,,,,,,
13.119481999999998,12.788183212280273,4.093146161777102,-0.14974924982111348,0.0,3.4927468299865723,75.202317,-0.3246312408709453,-30.848356246948242,-15.33040714263916,252.74713134765625,-64.37653350830078,75.202317,0.0,,,,,,51.639259820717726,,,,,,,,,,,,,,,,,,,,,-2.526028093809669,,,,,,,,,,,,,,,,,,,,
13.159066000000003,11.551042556762695,4.089306437422715,-0.15114551322270894,0.0,3.527594804763794,75.241901,-0.3022910264454179,-30.824296951293945,-15.436712265014648,252.13357543945312,-64.23139953613281,75.241901,0.0,,,,,,51.6392653324162,,,,,,,,,,,,,,,,,,,,,-2.5260460011331696,,,,,,,,,,,,,,,,,,,,
13.199879000000003,10.315008163452148,4.085292180143127,-0.15219271077390556,0.0,3.619250535964966,75.282714,-0.2839650692994774,-30.80524444580078,-15.49924373626709,251.5164337158203,-64.08502197265625,75.282714,0.0,,,,,,51.63927087632679,,,,,,,,,,,,,,,,,,,,,-2.526063892448007,,,,,,,,,,,,,,,,,,,,
13.239076000000004,9.07998275756836,4.080230725312344,-0.1525417766243044,0.0,3.605407238006592,75.321911,-0.266860842629933,-30.79830551147461,-15.603429794311523,250.89633178710938,-63.9371223449707,75.321911,0.0,,,,,,51.639276446829506,,,,,,,,,,,,,,,,,,,,,-2.5260817691622615,,,,,,,,,,,,,,,,,,,,
13.279473000000003,7.843776226043701,4.0742966058555625,-0.15393804002589986,0.0,3.650134563446045,75.362308,-0.2509783464367846,-30.76934814453125,-15.679075241088867,250.2735595703125,-63.78506088256836,75.362308,0.0,,,,,,51.63928204131997,,,,,,,,,,,,,,,,,,,,,-2.526099662977394,,,,,,,,,,,,,,,,,,,,
13.319538000000001,6.609097003936768,4.0664426242215885,-0.15376350710070044,0.0,3.6309239864349365,75.402373,-0.23561944901923448,-30.75389862060547,-15.798431396484375,249.64645385742188,-63.633846282958984,75.402373,0.0,,,,,,51.639287674739116,,,,,,,,,,,,,,,,,,,,,-2.5261175346893725,,,,,,,,,,,,,,,,,,,,
13.359254,5.376391887664795,4.058588642587614,-0.15585790220309362,0.0,3.6991565227508545,75.442089,-0.21991148575128552,-30.699987411499023,-15.905421257019043,249.015380859375,-63.48229217529297,75.442089,0.0,,,,,,51.6392933437972,,,,,,,,,,,,,,,,,,,,,-2.526135377830953,,,,,,,,,,,,,,,,,,,,
13.399465999999997,4.146116733551025,4.049687463402443,-0.15585790220309362,0.0,3.7465288639068604,75.48230099999999,-0.2040289895581371,-30.64470863342285,-16.03883171081543,248.37901306152344,-63.32993698120117,75.48230099999999,0.0,,,,,,51.63929906041955,,,,,,,,,,,,,,,,,,,,,-2.5261531858037247,,,,,,,,,,,,,,,,,,,,
13.439262000000006,2.9190471172332764,4.041484415918069,-0.15690509975429023,0.0,3.8298258781433105,75.522097,-0.18657569703819382,-30.564111709594727,-16.18553352355957,247.7377166748047,-63.174930572509766,75.522097,0.0,,,,,,51.63930482131643,,,,,,,,,,,,,,,,,,,,,-2.5261709473814307,,,,,,,,,,,,,,,,,,,,
13.480013000000007,1.6935096979141235,4.034154033059693,-0.1567305668290908,0.0,3.928232431411743,75.562848,-0.16982053621904827,-30.495656967163086,-16.30344581604004,247.09158325195312,-63.011497497558594,75.562848,0.0,,,,,,51.639310625665395,,,,,,,,,,,,,,,,,,,,,-2.526188686785381,,,,,,,,,,,,,,,,,,,,
13.520056000000004,0.47129184007644653,4.027172716051716,-0.15585790220309362,0.0,3.9720213413238525,75.602891,-0.15236724369910498,-30.444162368774414,-16.464149475097656,246.4397735595703,-62.84565353393555,75.602891,0.0,,,,,,51.63931648100545,,,,,,,,,,,,,,,,,,,,,-2.526206378143869,,,,,,,,,,,,,,,,,,,,
13.559688999999999,-0.7483696341514587,4.021936728295733,-0.1551597705022959,0.0,4.021232604980469,75.642524,-0.1296779634231787,-30.375476837158203,-16.57850456237793,245.78219604492188,-62.67953109741211,75.642524,0.0,,,,,,51.63932238815904,,,,,,,,,,,,,,,,,,,,,-2.5262240325037864,,,,,,,,,,,,,,,,,,,,
13.599441000000006,-1.9655170440673828,4.01670074053975,-0.15184364492350666,0.0,3.970414638519287,75.682276,-0.1059414855960558,-30.350244522094727,-16.739078521728516,245.1188507080078,-62.514244079589844,75.682276,0.0,,,,,,51.63932834712615,,,,,,,,,,,,,,,,,,,,,-2.5262416504777425,,,,,,,,,,,,,,,,,,,,
13.639091,-3.180464506149292,4.011813818634166,-0.1514945790731078,0.0,3.9837327003479004,75.721926,-0.08691739674931762,-30.284404754638672,-16.867603302001953,244.44955444335938,-62.35053253173828,75.721926,0.0,,,,,,51.639334359551675,,,,,,,,,,,,,,,,,,,,,-2.526259236612561,,,,,,,,,,,,,,,,,,,,
13.679447000000003,-4.39196252822876,4.006577830878183,-0.14817845349431857,0.0,3.9186196327209473,75.762282,-0.07190756518216639,-30.241168975830078,-17.027587890625,243.7741241455078,-62.18155288696289,75.762282,0.0,,,,,,51.63934042708047,,,,,,,,,,,,,,,,,,,,,-2.5262767728221323,,,,,,,,,,,,,,,,,,,,
13.719698000000001,-5.60090446472168,4.002039974822998,-0.14748032179352083,0.0,3.9389021396636963,75.802533,-0.05794493116621174,-30.158952713012695,-17.162683486938477,243.0933074951172,-62.015018463134766,75.802533,0.0,,,,,,51.63934654299598,,,,,,,,,,,,,,,,,,,,,-2.5262942720376254,,,,,,,,,,,,,,,,,,,,
13.759121,-6.806586265563965,3.9962803882914164,-0.1434660645139339,0.0,3.92374324798584,75.841956,-0.048869219055841226,-30.076353073120117,-17.331998825073242,242.4059600830078,-61.85004806518555,75.841956,0.0,,,,,,51.63935271757865,,,,,,,,,,,,,,,,,,,,,-2.5263117240681097,,,,,,,,,,,,,,,,,,,,
13.799459000000006,-8.008162498474121,3.9910444005354333,-0.14224433403753786,0.0,3.9579412937164307,75.882294,-0.0460766922526503,-29.979164123535156,-17.473115921020508,241.71273803710938,-61.6853141784668,75.882294,0.0,,,,,,51.63935894493437,,,,,,,,,,,,,,,,,,,,,-2.526329116676142,,,,,,,,,,,,,,,,,,,,
13.839301999999996,-9.206276893615723,3.9858084127794506,-0.13770647798235258,0.0,3.8919198513031006,75.92213699999999,-0.04590215932745086,-29.899993896484375,-17.643142700195312,241.0126495361328,-61.52267837524414,75.92213699999999,0.0,,,,,,51.63936523397286,,,,,,,,,,,,,,,,,,,,,-2.5263464591796625,,,,,,,,,,,,,,,,,,,,
13.879466999999998,-10.399099349975586,3.981096023799066,-0.13648474750595657,0.0,3.8302485942840576,75.962302,-0.046949356878647465,-29.812328338623047,-17.80489730834961,240.3059539794922,-61.35792922973633,75.962302,0.0,,,,,,51.639371582363886,,,,,,,,,,,,,,,,,,,,,-2.5263637250883306,,,,,,,,,,,,,,,,,,,,
13.919615,-11.589173316955566,3.9758600360430827,-0.1329940890019679,0.0,3.693885564804077,76.00245,-0.046251225177849735,-29.745941162109375,-17.967073440551758,239.59226989746094,-61.198944091796875,76.00245,0.0,,,,,,51.63937799353427,,,,,,,,,,,,,,,,,,,,,-2.526380951218171,,,,,,,,,,,,,,,,,,,,
13.959678000000004,-12.775978088378906,3.9713221799878973,-0.13177235852557187,0.0,3.55798602104187,76.042513,-0.04241150082346221,-29.664810180664062,-18.142433166503906,238.8723602294922,-61.04640197753906,76.042513,0.0,,,,,,51.63938446063036,,,,,,,,,,,,,,,,,,,,,-2.5263981300320806,,,,,,,,,,,,,,,,,,,,
13.999998999999995,-13.960095405578613,3.9667843239327123,-0.1291543646475804,0.0,3.4453988075256348,76.08283399999999,-0.04136430327226561,-29.589052200317383,-18.295246124267578,238.1453857421875,-60.90058135986328,76.08283399999999,0.0,,,,,,51.63939099119118,,,,,,,,,,,,,,,,,,,,,-2.5264152699507405,,,,,,,,,,,,,,,,,,,,
14.039086000000005,-15.140801429748535,3.9620719349523275,-0.12810716709638378,0.0,3.3623526096343994,76.121921,-0.04485496177625427,-29.502620697021484,-18.461166381835938,237.4127655029297,-60.75907516479492,76.121921,0.0,,,,,,51.639397572468944,,,,,,,,,,,,,,,,,,,,,-2.5264323604967025,,,,,,,,,,,,,,,,,,,,
14.079444000000002,-16.315275192260742,3.955788749645148,-0.1265363707695889,0.0,3.3333561420440674,76.162279,-0.05044001538263613,-29.409337997436523,-18.597278594970703,236.6720428466797,-60.61613464355469,76.162279,0.0,,,,,,51.63940422653238,,,,,,,,,,,,,,,,,,,,,-2.5264493608370757,,,,,,,,,,,,,,,,,,,,
14.119604000000002,-17.486295700073242,3.950901827739564,-0.12514010736799341,0.0,3.2996950149536133,76.202439,-0.055326937288220246,-29.336063385009766,-18.741310119628906,235.92605590820312,-60.47507858276367,76.202439,0.0,,,,,,51.63941092788593,,,,,,,,,,,,,,,,,,,,,-2.526466311197419,,,,,,,,,,,,,,,,,,,,
14.159168999999999,-18.654930114746094,3.9460149058339797,-0.12356931104119853,0.0,3.2714054584503174,76.242004,-0.05794493116621174,-29.262889862060547,-18.84205436706543,235.17495727539062,-60.33700942993164,76.242004,0.0,,,,,,51.639417675158896,,,,,,,,,,,,,,,,,,,,,-2.526483227024743,,,,,,,,,,,,,,,,,,,,
14.199903999999997,-19.820817947387695,3.941302516853595,-0.12147491593880534,0.0,3.2451589107513428,76.28273899999999,-0.05846852994181004,-29.19902229309082,-18.979778289794922,234.41943359375,-60.200477600097656,76.28273899999999,0.0,,,,,,51.63942446218297,,,,,,,,,,,,,,,,,,,,,-2.5265001031010255,,,,,,,,,,,,,,,,,,,,
14.239258999999997,-20.984086990356445,3.9360665290976122,-0.12060225131280818,0.0,3.211461305618286,76.32209399999999,-0.059166661642607775,-29.09998893737793,-19.093334197998047,233.6588897705078,-60.066524505615234,76.32209399999999,0.0,,,,,,51.63943129430402,,,,,,,,,,,,,,,,,,,,,-2.5265169412761037,,,,,,,,,,,,,,,,,,,,
14.279439000000004,-22.13978385925293,3.930830541341629,-0.1181587903600161,0.0,3.085879325866699,76.362274,-0.05707226654021458,-29.027442932128906,-19.267032623291016,232.89149475097656,-59.932952880859375,76.362274,0.0,,,,,,51.639438187970754,,,,,,,,,,,,,,,,,,,,,-2.526533669850675,,,,,,,,,,,,,,,,,,,,
14.319640999999997,-23.29273223876953,3.926467218211643,-0.11763519158441782,0.0,3.036031723022461,76.402476,-0.05515240436302082,-28.924497604370117,-19.38528060913086,232.1182403564453,-59.8044548034668,76.402476,0.0,,,,,,51.639445134273465,,,,,,,,,,,,,,,,,,,,,-2.526550358646771,,,,,,,,,,,,,,,,,,,,
14.359091999999997,-24.443267822265625,3.923500158483253,-0.11501719770642631,0.0,3.026571750640869,76.44192699999999,-0.05113814708343386,-28.897804260253906,-19.493192672729492,231.34036254882812,-59.677772521972656,76.44192699999999,0.0,,,,,,51.63945212210923,,,,,,,,,,,,,,,,,,,,,-2.5265670125234543,,,,,,,,,,,,,,,,,,,,
14.399414,-25.59251594543457,3.92140576338086,-0.1153662635568252,0.0,3.1155171394348145,76.482249,-0.04468042885105484,-28.81930923461914,-19.553964614868164,230.55955505371094,-59.550296783447266,76.482249,0.0,,,,,,51.63945913626299,,,,,,,,,,,,,,,,,,,,,-2.526583647769693,,,,,,,,,,,,,,,,,,,,
14.439118,-26.73965072631836,3.9184387036524693,-0.11257373675363426,0.0,3.1165592670440674,76.521953,-0.04206243497306335,-28.773468017578125,-19.66107177734375,229.7753143310547,-59.42203140258789,76.521953,0.0,,,,,,51.639466181258136,,,,,,,,,,,,,,,,,,,,,-2.5266002524310287,,,,,,,,,,,,,,,,,,,,
14.480032000000001,-27.880882263183594,3.91512257807368,-0.11379546723003028,0.0,3.0727429389953613,76.562867,-0.03822271061867582,-28.699811935424805,-19.746559143066406,228.9857940673828,-59.29071044921875,76.562867,0.0,,,,,,51.63947327368048,,,,,,,,,,,,,,,,,,,,,-2.526616771649361,,,,,,,,,,,,,,,,,,,,
14.520068000000002,-29.020832061767578,3.9125045841956885,-0.11100294042683936,0.0,2.810548782348633,76.602903,-0.03368485456349056,-28.673431396484375,-19.87558364868164,228.19183349609375,-59.16731262207031,76.602903,0.0,,,,,,51.639480405991016,,,,,,,,,,,,,,,,,,,,,-2.5266332723202556,,,,,,,,,,,,,,,,,,,,
14.559642000000004,-30.16067886352539,3.911806452494891,-0.11222467090323539,0.0,2.6333823204040527,76.642477,-0.027227136331111543,-28.659860610961914,-19.93201446533203,227.39486694335938,-59.05353927612305,76.642477,0.0,,,,,,51.639487565304904,,,,,,,,,,,,,,,,,,,,,-2.5266497715057357,,,,,,,,,,,,,,,,,,,,
14.599700000000006,-31.301794052124023,3.9114573866444924,-0.11100294042683936,0.0,2.514674186706543,76.682535,-0.02129301687433082,-28.692319869995117,-19.96514320373535,226.59603881835938,-58.94712448120117,76.682535,0.0,,,,,,51.63949474134167,,,,,,,,,,,,,,,,,,,,,-2.5266662890563136,,,,,,,,,,,,,,,,,,,,
14.639305999999998,-32.444339752197266,3.910584722018495,-0.11292280260403312,0.0,2.465876817703247,76.722141,-0.0153588974175501,-28.71019172668457,-19.964885711669922,225.7974395751953,-58.84407424926758,76.722141,0.0,,,,,,51.63950191532235,,,,,,,,,,,,,,,,,,,,,-2.526682827318553,,,,,,,,,,,,,,,,,,,,
14.679443,-33.58366775512695,3.9081412610657025,-0.11205013797803595,0.0,2.4720818996429443,76.762278,-0.013439035240356337,-28.716552734375,-19.99018669128418,224.99612426757812,-58.738468170166016,76.762278,0.0,,,,,,51.63950911370199,,,,,,,,,,,,,,,,,,,,,-2.526699319010559,,,,,,,,,,,,,,,,,,,,
14.719681999999999,-34.723243713378906,3.9051742013373123,-0.11397000015522972,0.0,2.552903890609741,76.802517,-0.016755160819145562,-28.69053840637207,-20.01261329650879,224.1947479248047,-58.63151931762695,76.802517,0.0,,,,,,51.63951631262992,,,,,,,,,,,,,,,,,,,,,-2.526715814296927,,,,,,,,,,,,,,,,,,,,
14.759171000000002,-35.89165496826172,3.9011599440577256,-0.11239920382843482,0.0,2.5120699405670166,76.842006,-0.019024088846738195,-28.668764114379883,-20.066221237182617,223.3716278076172,-58.522560119628906,76.842006,0.0,,,,,,51.639523706886635,,,,,,,,,,,,,,,,,,,,,-2.526732726977889,,,,,,,,,,,,,,,,,,,,
14.799472999999999,-37.030418395996094,3.898541950179734,-0.11344640137963143,0.0,2.5565598011016846,76.882308,-0.01780235837034216,-28.620847702026367,-20.109371185302734,222.56719970703125,-58.41694641113281,76.882308,0.0,,,,,,51.63953093322913,,,,,,,,,,,,,,,,,,,,,-2.526749210513919,,,,,,,,,,,,,,,,,,,,
14.839408999999996,-38.1684684753418,3.8960984892269415,-0.11152653920243766,0.0,2.6072113513946533,76.92224399999999,-0.01710422666954443,-28.583276748657227,-20.159841537475586,221.76075744628906,-58.31022644042969,76.92224399999999,0.0,,,,,,51.639538177665244,,,,,,,,,,,,,,,,,,,,,-2.5267656837297956,,,,,,,,,,,,,,,,,,,,
14.879455999999998,-39.30226135253906,3.8945276929001467,-0.11222467090323539,0.0,2.672821521759033,76.962291,-0.019198621771937627,-28.531564712524414,-20.20803451538086,220.95257568359375,-58.19797134399414,76.962291,0.0,,,,,,51.63954543772766,,,,,,,,,,,,,,,,,,,,,-2.5267820953286613,,,,,,,,,,,,,,,,,,,,
14.919625000000003,-40.43587875366211,3.8929568965733523,-0.11013027580084218,0.0,2.692340612411499,77.00246,-0.02076941809873252,-28.509511947631836,-20.244352340698242,220.14251708984375,-58.085594177246094,77.00246,0.0,,,,,,51.63955271465003,,,,,,,,,,,,,,,,,,,,,-2.526798504393005,,,,,,,,,,,,,,,,,,,,
14.959635999999996,-41.568424224853516,3.8920842319473548,-0.11065387457644049,0.0,2.6750974655151367,77.04247099999999,-0.02495820830351891,-28.46543312072754,-20.297666549682617,219.3313751220703,-57.973384857177734,77.04247099999999,0.0,,,,,,51.639560001304574,,,,,,,,,,,,,,,,,,,,,-2.5268148979466876,,,,,,,,,,,,,,,,,,,,
14.999995000000006,-42.700199127197266,3.8901643697701607,-0.1096066770252439,0.0,2.5990633964538574,77.08283,-0.030019663134302467,-28.418386459350586,-20.370685577392578,218.5174560546875,-57.86458206176758,77.08283,0.0,,,,,,51.63956731290637,,,,,,,,,,,,,,,,,,,,,-2.526831280352085,,,,,,,,,,,,,,,,,,,,
15.039284000000002,-43.830345153808594,3.8891171722189646,-0.11013027580084218,0.0,2.539824962615967,77.122119,-0.03316125578789226,-28.370716094970703,-20.45039939880371,217.7012176513672,-57.75847625732422,77.122119,0.0,,,,,,51.63957464534324,,,,,,,,,,,,,,,,,,,,,-2.526847639185269,,,,,,,,,,,,,,,,,,,,
15.079461000000002,-44.95536422729492,3.8885935734433663,-0.11013027580084218,0.0,2.5468456745147705,77.162296,-0.03717551306747922,-28.34401512145996,-20.492366790771484,216.88084411621094,-57.64976119995117,77.162296,0.0,,,,,,51.639582014926845,,,,,,,,,,,,,,,,,,,,,-2.526863923812209,,,,,,,,,,,,,,,,,,,,
15.119619000000007,-46.08012390136719,3.8885935734433663,-0.11135200627723822,0.0,2.613752841949463,77.202454,-0.03979350694547071,-28.330881118774414,-20.523021697998047,216.0595703125,-57.53968048095703,77.202454,0.0,,,,,,51.63958939259775,,,,,,,,,,,,,,,,,,,,,-2.5268802046897836,,,,,,,,,,,,,,,,,,,,
15.159171000000008,-47.20570755004883,3.8884190405181664,-0.1111774733520388,0.0,2.6102640628814697,77.242006,-0.03665191429188092,-28.317466735839844,-20.530609130859375,215.2376251220703,-57.43011474609375,77.242006,0.0,,,,,,51.639596776299854,,,,,,,,,,,,,,,,,,,,,-2.5268964974996897,,,,,,,,,,,,,,,,,,,,
15.199662999999994,-48.33176040649414,3.8885935734433663,-0.11047934165124106,0.0,2.537625312805176,77.28249799999999,-0.033335788713091695,-28.32613182067871,-20.55742645263672,214.41555786132812,-57.322113037109375,77.28249799999999,0.0,,,,,,51.63960416109854,,,,,,,,,,,,,,,,,,,,,-2.5269127971066507,,,,,,,,,,,,,,,,,,,,
15.239336999999999,-49.4591064453125,3.888069974667768,-0.10995574287564276,0.0,2.508394479751587,77.322172,-0.026878070480712675,-28.33285903930664,-20.537769317626953,213.59332275390625,-57.21790313720703,77.322172,0.0,,,,,,51.63961154740503,,,,,,,,,,,,,,,,,,,,,-2.5269291154376257,,,,,,,,,,,,,,,,,,,,
15.279468999999999,-50.582271575927734,3.887197310041771,-0.10890854532444617,0.0,2.456843852996826,77.362304,-0.02111848394913139,-28.33420181274414,-20.582324981689453,212.76889038085938,-57.1110954284668,77.362304,0.0,,,,,,51.639618953450004,,,,,,,,,,,,,,,,,,,,,-2.5269453732560123,,,,,,,,,,,,,,,,,,,,
15.319528999999996,-51.706119537353516,3.884928382014178,-0.10855947947404729,0.0,2.4568724632263184,77.40236399999999,-0.016929693744344994,-28.310470581054688,-20.57956314086914,211.94363403320312,-57.00695037841797,77.40236399999999,0.0,,,,,,51.63962636689692,,,,,,,,,,,,,,,,,,,,,-2.52696164096374,,,,,,,,,,,,,,,,,,,,
15.359164,-52.8296012878418,3.8823103881361867,-0.10663961729685355,0.0,2.4037058353424072,77.441999,-0.013613568165555772,-28.272140502929688,-20.668630599975586,211.11715698242188,-56.904151916503906,77.441999,0.0,,,,,,51.639633791309656,,,,,,,,,,,,,,,,,,,,,-2.5269779033761033,,,,,,,,,,,,,,,,,,,,
15.399609000000005,-53.95252990722656,3.880041460108594,-0.1064650843716541,0.0,2.3751327991485596,77.482444,-0.01064650843716541,-28.228992462158203,-20.682659149169922,210.28890991210938,-56.804229736328125,77.482444,0.0,,,,,,51.63964123162284,,,,,,,,,,,,,,,,,,,,,-2.5269941577875454,,,,,,,,,,,,,,,,,,,,
15.439218000000004,-55.0749397277832,3.8782961308566,-0.10402162341886204,0.0,2.289790630340576,77.522053,-0.005235987755982988,-28.217803955078125,-20.74193000793457,209.45938110351562,-56.70707702636719,77.522053,0.0,,,,,,51.63964868345014,,,,,,,,,,,,,,,,,,,,,-2.5270104046949577,,,,,,,,,,,,,,,,,,,,
15.479969000000004,-56.19268035888672,3.8760272028290075,-0.10454522219446034,0.0,2.309727668762207,77.562804,-0.0020943951023931952,-28.14900779724121,-20.772735595703125,208.626953125,-56.60838317871094,77.562804,0.0,,,,,,51.639656161321284,,,,,,,,,,,,,,,,,,,,,-2.5270265840220776,,,,,,,,,,,,,,,,,,,,
15.520069999999997,-57.309165954589844,3.873234676025816,-0.10192722831646885,0.0,2.2532455921173096,77.60290499999999,0.0022689280275926286,-28.103252410888672,-20.85790252685547,207.7924041748047,-56.51132583618164,77.60290499999999,0.0,,,,,,51.639663658245546,,,,,,,,,,,,,,,,,,,,,-2.527042745188354,,,,,,,,,,,,,,,,,,,,
15.559621,-58.42428207397461,3.8714893467738216,-0.10245082709206714,0.0,2.241201639175415,77.642456,0.007504915783575617,-28.030879974365234,-20.896432876586914,206.95596313476562,-56.41653060913086,77.642456,0.0,,,,,,51.639671172166835,,,,,,,,,,,,,,,,,,,,,-2.5270588865372368,,,,,,,,,,,,,,,,,,,,
15.599345000000007,-59.53772735595703,3.8697440175218274,-0.09965830028887622,0.0,2.1356558799743652,77.68218,0.012042771838760872,-27.975858688354492,-20.971399307250977,206.11721801757812,-56.325157165527344,77.68218,0.0,,,,,,51.63967870678613,,,,,,,,,,,,,,,,,,,,,-2.5270750037066283,,,,,,,,,,,,,,,,,,,,
15.639468,-60.64913558959961,3.8681732211950326,-0.10105456369047168,0.0,2.131075859069824,77.722303,0.012740903539558606,-27.901519775390625,-20.997234344482422,205.2770233154297,-56.236351013183594,77.722303,0.0,,,,,,51.63968625442734,,,,,,,,,,,,,,,,,,,,,-2.5270910913955156,,,,,,,,,,,,,,,,,,,,
